pressure,temperature,altitude,ax,ay,az,pitch,roll,yaw
92817.5,20.2,733.6802,0.008184,0.022495,0.994756,-0.380733,0.712881,180.8558
92814.3,20.21,733.9682,-0.000605,0.024448,0.95374,-0.612525,0.813901,184.1387
92821.39,20.23,733.3314,-0.012812,0.034702,0.984502,0.482244,1.597083,186.097
92814.6,20.24,733.9391,-0.008418,0.073276,0.984502,1.061622,0.65873,181.3887
92819.91,20.25,733.4662,0.092656,0.030796,1.029912,-0.183733,-0.26697,176.3051
92829.7,20.27,732.5916,-0.138301,-0.113247,0.921514,-0.302263,-0.827756,172.7628
92835.45,20.29,732.0764,-0.09875,-0.126919,0.997197,-0.08937,-1.447285,170.023
92842.25,20.32,731.4686,0.266484,-0.109341,0.574346,-0.447365,-7.770628,172.3771
92840.16,20.34,731.6562,-0.121211,-0.184048,1.009404,8.010768,-6.913452,174.3607
92837.55,20.34,731.8887,-0.371211,0.013218,1.219854,13.19436,-4.982837,180.2011
92833.12,20.36,732.2851,-0.162715,-0.001919,0.963018,3.660961,-5.030142,182.4242
92831.59,20.38,732.4225,-0.09875,-0.022915,1.135381,8.293944,-4.107121,184.5328
92832.38,20.39,732.3511,-0.117793,-0.077114,0.849248,9.510476,-6.579267,184.263
92829.83,20.4,732.5784,-0.18127,0.155796,0.94251,4.031662,-2.739714,180.0666
92834.23,20.41,732.1847,0.039434,0.105503,0.945439,-1.990013,2.7768,177.0611
92838.04,20.44,731.8438,-0.090938,-0.100063,1.001592,-1.807095,1.540797,177.0397
92834.39,20.43,732.1714,-0.02209,0.035679,0.967412,1.219886,1.003751,180.8889
92834.39,20.43,732.1714,-0.130977,-0.074185,1.020146,2.337801,0.495061,184.3807
92832.77,20.44,732.3168,0.004277,0.018101,0.98792,2.707763,1.080966,186.9524
92828.04,20.46,732.7396,-0.077266,-0.037075,0.962529,3.894827,-0.241568,188.5763
92825.34,20.49,732.98,-0.043086,-0.040981,0.968389,3.850364,-0.188339,189.1386
92825.34,20.49,732.98,-0.055293,0.022007,1.007451,1.732731,0.273831,191.4319
92827.11,20.5,732.8215,0.019902,0.075229,0.991826,2.217542,1.667617,194.2631
92823.58,20.51,733.1385,-0.017695,0.060093,0.99915,0.850433,1.085454,196.35
92818.73,20.52,733.5718,0.011113,0.045444,1.015752,-0.586732,2.309367,198.8978
92818.73,20.52,733.5718,-0.050898,-0.014126,0.972783,2.154958,2.25478,201.798
92819.2,20.47,733.5296,-0.013301,0.037144,1.004521,2.644263,1.777668,203.7446
92819.56,20.43,733.4979,-0.125605,-0.025356,0.994756,3.46431,1.517039,204.6537
92816.36,20.4,733.7833,-0.059199,0.046909,1.004033,3.490841,1.869135,206.0218
92815.16,20.38,733.8916,-0.185664,-0.020962,0.962529,3.166704,1.331405,208.2041
92816.63,20.36,733.7595,-0.097285,-0.01022,0.983037,3.447632,0.742196,209.776
92816.05,20.33,733.8097,-0.041133,-0.001431,1.001104,2.132965,-0.04922,210.9226
92817.63,20.32,733.6696,-0.022578,0.002964,1.014287,0.857586,0.124617,211.8902
92817.16,20.31,733.7119,-0.094355,-0.017056,1.011357,3.275542,-0.179036,212.2235
92815.92,20.28,733.8229,-0.018184,-0.012661,1.006963,3.214858,-0.309257,214.3105
92820.3,20.29,733.4318,-0.041133,-0.018032,1.004033,2.702,-0.655156,216.1747
92820.3,20.29,733.4318,0.008672,-0.000942,0.949346,0.785683,4.660854,217.6361
92814.84,20.27,733.918,-0.006465,0.277378,1.023076,1.038536,8.220605,219.6779
92810.5,20.23,734.3064,-0.03918,0.008335,1.009893,2.089183,0.577396,220.2572
92812.8,20.19,734.1003,-0.055293,0.066929,0.975713,3.310045,4.948011,222.8488
92812.58,20.16,734.1215,-0.071895,0.265659,0.962529,2.606856,7.329898,228.5297
92814.28,20.13,733.9682,-0.027949,0.179233,0.976689,0.173798,8.744107,232.7896
92810.03,20.1,734.3487,0.094121,0.149937,1.021123,-3.591369,7.006489,236.4697
92811.61,20.05,734.206,0.095586,0.107456,0.986455,-5.963494,5.460988,238.205
92812.08,20.03,734.1664,0.147832,0.132847,1.00501,-7.717566,6.36683,238.8733
92809.58,19.94,734.3883,0.134648,0.114292,0.995732,-7.91615,6.309221,239.3986
92809.58,19.94,734.3883,0.124883,0.132358,0.980596,-6.939482,5.900947,240.9381
92814.93,19.91,733.9101,0.130742,0.129429,1.003545,-7.300256,7.099461,241.7614
92819.68,19.89,733.4847,0.10877,0.079624,0.983525,-6.678013,5.432234,243.1176
92819.38,19.86,733.5137,0.13416,0.137241,0.99085,-7.002151,6.417485,244.0968
92813.95,19.84,733.9973,0.116582,0.119663,0.976689,-6.924003,6.141717,245.294
92813.95,19.84,733.9973,0.120977,0.118687,0.996221,-7.042407,6.219084,246.659
92816.46,19.83,733.7726,0.096074,0.065952,1.007939,-4.135293,3.807057,248.9951
92812.21,19.83,734.1531,0.041875,-0.074185,1.003545,-3.323267,0.04927,248.5346
92815.23,19.8,733.8837,0.096562,-0.039517,1.04749,-4.707778,0.706208,248.402
92815.4,19.78,733.8678,0.100469,0.011265,1.054814,-4.828208,1.704552,247.4502
92815.58,19.76,733.8519,0.091191,0.061069,1.012822,-5.907498,4.239238,246.5428
92820.59,19.74,733.4054,0.006719,-0.087856,0.929814,-4.625858,2.050637,247.3157
92822.44,19.72,733.239,-0.042598,0.070347,0.952275,-1.97454,2.304557,249.9044
92813.5,19.72,734.0396,0.002813,0.063511,0.904424,0.819457,1.584125,252.4413
92811.97,19.73,734.1743,0.018926,-0.075649,0.99085,2.518771,1.748901,252.4958
92809.45,19.71,734.3989,-0.050898,0.011753,1.009893,1.267787,0.866875,252.3222
92811.39,19.7,734.2272,-0.051875,-0.024868,0.977666,2.790844,-0.651688,250.8401
92815.64,19.7,733.8467,-0.043086,0.066929,1.025029,2.888928,0.477011,247.6682
92812.18,19.72,734.1558,-0.131465,0.078159,1.007451,1.803218,0.821308,245.9029
92821.88,19.73,733.2891,-0.198848,0.02689,1.004033,1.182187,0.668514,245.6932
92818.28,19.74,733.6115,-0.00793,0.098667,1.0304,-1.788216,2.818762,245.6877
92823.55,19.74,733.1412,-0.030879,0.104526,1.008428,-1.352118,4.028029,245.7288
92818.47,19.76,733.593,0.071172,0.077671,0.969365,-1.937121,4.995517,246.5867
92818.23,19.77,733.6141,-0.043086,0.124058,1.018682,-0.020397,6.064492,247.2494
92813.27,19.77,734.058,-0.146602,0.019565,0.890264,4.578097,8.841304,247.6585
92802.59,19.75,735.0145,-0.41125,0.372104,0.836064,17.20314,20.86213,248.2044
92802.59,19.75,735.0145,-0.471309,0.562046,0.859502,24.33236,27.98873,250.5346
92802.23,19.74,735.0463,-0.521602,0.52689,0.690557,27.76912,31.70758,253.1658
92796.03,19.75,735.5985,-0.652461,0.573276,0.679326,30.92775,36.19691,256.249
92795,19.78,735.691,-0.063105,0.146519,0.818975,14.7039,21.96401,254.392
92795,19.78,735.691,-0.067988,0.048374,0.886357,0.725082,5.106516,257.2026
92813.25,19.8,734.0607,0.140508,-0.250942,0.840459,-10.95653,-12.25458,259.6418
96421.61,19.91,416.4805,0.358281,-0.386196,0.804814,-18.70852,-23.6317,261.5133
98753.47,19.97,416.4805,0.433477,-0.409146,0.744268,-14.03648,-19.02206,258.1221
92897.28,20.03,726.5513,-0.097773,0.137729,1.071416,3.170719,1.109357,254.5071
92828.45,20.06,732.7026,0.057988,0.020542,0.99915,4.854682,-0.907708,257.4247
92825.55,20.07,732.9615,-0.568965,-0.186001,0.691045,32.06627,-12.39061,259.4272
92828.14,20.1,732.729,-1.111445,-0.24313,0.471318,41.01971,-13.89283,264.3945
92826.5,20.13,732.877,-0.936152,-0.341763,0.451299,41.95877,-14.53423,265.0363
92822.64,20.14,733.2205,-0.929316,-0.246548,0.576787,29.17896,-5.820024,271.939
92819.77,20.16,733.4794,-0.119746,0.142124,0.92249,4.103863,3.4996,275.1376
92805.81,20.14,734.7266,0.363164,0.231968,0.917607,-13.42071,9.842749,271.4647
92810.16,20.11,734.3381,0.52625,0.298374,0.923467,-23.00955,15.20188,269.0449
92820.17,20.09,733.4424,0.564336,0.316929,0.971318,-18.98339,13.35427,270.333
92813.59,20.09,734.029,-0.109004,0.029819,0.923955,-9.681936,6.955192,274.1245
92806.77,20.1,734.642,-0.183711,0.062534,0.972783,-3.789959,7.995178,277.2875
92806.77,20.1,734.642,-0.251094,0.402866,0.815068,3.170918,26.40938,279.6057
92792.73,20.11,735.8944,-0.263789,0.700229,0.773564,6.054711,36.37214,282.1041
92792.55,20.13,735.9129,-0.350215,0.727085,0.681768,10.11119,39.31627,284.4769
92795.45,20.12,735.6513,-0.254512,0.565464,0.816533,2.495569,23.56878,280.6887
92795.19,20.13,735.6751,-0.135859,0.204624,0.959111,-5.694357,1.063808,282.2695
92880.25,20.11,728.0733,0.195684,-0.265591,0.903447,-12.71869,-18.95072,287.8634
95841.19,20.16,466.9083,0.109746,-0.532192,0.784307,-13.91947,-28.5126,290.4442
95616.7,20.21,486.477,0.19666,-0.44479,0.900518,-12.2052,-28.14215,290.2046
95891.25,20.25,462.5486,0.195195,-0.646939,0.743291,-10.74253,-26.36789,291.6859
92854.05,20.31,730.4144,-0.026484,-0.031704,0.910283,0.116067,-5.814382,290.18
92805.36,20.32,734.7662,-0.196895,0.235386,1.006475,5.838767,1.338122,292.5684
92802.69,20.31,735.004,-0.073848,0.188511,0.994268,5.100347,2.578757,295.9467
92806.38,20.28,734.6763,-0.155879,0.234897,1.005498,8.648495,1.945829,313.4932
92808.14,20.26,734.5178,-0.288203,0.320347,0.932256,10.43704,6.127707,354.8425
92818.08,20.22,733.63,0.058965,0.182163,0.883916,2.600786,8.564261,20.7355
92800.02,20.19,735.2444,0.01209,0.187534,0.965459,2.711882,8.596232,24.73779
92799.75,20.16,735.2682,-0.175898,0.219761,1.012334,5.744046,6.708879,10.76512
92817.39,20.11,733.6907,-0.030391,0.138706,1.024053,1.819879,6.076475,344.3398
92803,20.08,734.9775,-0.342891,-0.001919,1.030889,5.3238,6.61377,311.9546
92808.14,20.07,734.5178,-0.200801,-0.028774,0.901006,4.23034,6.708364,284.4774
92855.14,20.1,730.3166,0.028691,0.187046,0.992803,0.814457,9.800084,263.974
92965.41,20.17,720.4688,-0.194941,0.116733,1.042607,4.360182,10.52207,245.7648
93017.09,20.2,715.8554,0.141484,0.295444,1.012822,3.967766,10.59226,237.6566
92855.47,20.25,730.2875,-0.154902,0.001011,0.999639,4.230355,8.499814,246.1296
92925.66,20.29,724.0174,-0.136836,0.025425,1.018193,1.641888,8.017333,270.6229
92854.11,20.32,730.4091,0.018926,0.209507,1.040166,3.386003,6.712918,295.3633
92809.41,20.33,734.4042,-0.075313,0.188511,0.987432,4.381251,6.568974,316.0322
92805.54,20.3,734.7503,-0.035273,0.075229,1.013311,1.090278,3.367318,331.2931
92811.13,20.26,734.2509,-0.081172,0.15189,0.960576,6.348849,9.098163,332.6807
92805.65,20.23,734.7397,-0.395625,0.196323,0.914189,17.94721,9.260439,329.9651
92807.08,20.21,734.6129,-0.447383,0.155796,0.768193,29.97022,8.473623,331.0502
92813.39,20.18,734.0475,-0.625605,0.153843,0.671514,36.43285,10.05595,333.8073
92818.37,20.18,733.6036,-0.782832,0.257358,0.544072,44.28303,14.79778,347.4392
92808.94,20.2,734.4465,-0.648555,0.112339,0.531377,36.48925,13.93502,350.9203
92808.94,20.2,734.4465,-0.708613,0.35355,0.472295,36.81336,28.49615,356.944
92814.95,20.21,733.9074,-0.816523,0.570347,0.526982,30.71688,43.08596,2.280258
92816.19,20.2,733.7991,-0.440059,0.74564,0.604619,23.8817,48.11353,0.441422
92819.74,20.19,733.4794,-0.433223,0.81644,0.659795,14.99821,47.78456,354.1848
92819.74,20.19,733.4794,-0.151973,0.680698,0.778447,-0.939214,39.40946,347.7023
92811.59,20.16,734.2087,0.123418,0.608433,0.87415,-11.74394,33.7179,343.3431
92810.81,20.15,734.2773,0.294316,0.396519,0.810674,-19.66498,23.0303,341.0258
92816.17,20.16,733.7991,0.435918,-0.007778,0.78626,-20.59975,7.494777,342.388
92820.39,20.15,733.4213,0.485234,-0.278774,0.846318,-18.88858,-9.341071,345.2739
92922.86,20.16,724.2684,0.257207,-0.529751,0.742803,-13.07435,-21.14185,342.2422
95732.61,20.17,476.3676,0.123906,-0.585415,0.766729,1.006238,-26.49695,331.5486
92942.46,20.21,722.5166,-0.218379,-0.513149,0.787236,18.01343,-27.97374,323.7852
92909.93,20.26,725.4231,-0.731074,-0.175259,0.716436,40.33081,-23.65812,322.7621
92787.06,20.29,736.4017,-0.889766,-0.043911,0.562627,56.37396,-11.72676,329.9037
92809.06,20.29,734.4359,-0.795039,0.352085,0.449346,55.65129,20.90268,356.1495
92809.06,20.29,734.4359,-0.801387,0.433628,0.366338,49.36492,44.82099,15.92363
92816.52,20.24,733.77,-0.732539,0.707065,0.498662,36.0851,46.18055,16.33978
92819.2,20.2,733.5296,-0.296504,0.66019,0.788701,22.53618,36.26951,13.61833
92802.47,20.21,735.0251,-0.235957,0.337437,0.961553,9.666822,22.20004,14.20659
92802.47,20.21,735.0251,-0.046992,0.158237,0.84876,5.785067,14.79095,18.92137
92803.88,20.18,734.8983,-0.043574,0.203159,1.049443,3.146949,11.26853,20.11885
92800.63,20.08,735.1889,0.078008,0.155308,0.977666,3.674241,10.41665,18.71121
92806.61,20.05,734.6552,-0.057734,0.174839,1.003057,2.632152,8.232701,20.02722
92799.52,20.03,735.2867,-0.044062,0.324253,1.0846,1.579319,8.414832,24.61679
92803.88,20.04,734.8983,-0.052363,0.110874,0.937139,2.647961,7.749535,25.18861
92800.41,20.05,735.2075,-0.02502,0.186069,1.020146,1.897517,9.860372,25.83279
92799.75,20.05,735.2682,-0.20666,0.230991,1.077764,2.179656,10.09646,26.08409
92803.55,20.04,734.9274,0.008672,0.135776,1.010381,-0.156505,6.057571,26.73468
92810.67,20.02,734.2906,-0.008906,0.077671,0.992314,1.992711,4.166627,26.16594
92809.8,20,734.3698,-0.140254,0.082065,0.997197,5.975446,4.662031,23.15091
92816.5,19.98,733.77,-0.117793,0.133335,1.008428,6.605366,5.378692,23.50398
92811.64,19.95,734.2034,-0.154414,-0.016079,0.949346,6.629945,0.60638,22.43176
92821.25,19.92,733.3446,-0.085566,-0.050259,1.013799,4.186763,0.301189,19.29124
92816.22,19.91,733.7964,-0.126094,0.00687,1.011357,9.137638,0.445458,13.37773
92819.53,19.88,733.5005,-0.190547,-0.021938,0.943975,14.32565,-2.336533,8.782394
92829.73,19.87,732.5889,-0.403926,-0.067837,0.907354,17.95963,-3.320866,9.090775
92831.34,19.87,732.4436,-0.259395,0.006382,0.942021,17.15337,-2.39193,10.66487
92829.31,19.87,732.6259,-0.310664,-0.112271,0.889287,15.53758,-0.979241,12.51683
92826.08,19.87,732.9139,-0.044062,0.068882,0.937139,9.904061,0.920485,11.20821
92819.38,19.86,733.5137,-0.311152,0.011753,0.982061,16.8271,0.628216,10.54559
92830.31,19.83,732.5361,-0.376582,0.094761,1.003545,17.14191,-0.19277,10.3446
92828.05,19.83,732.7396,-0.066523,0.020542,0.920049,12.27537,0.602014,13.23792
92825.7,19.83,732.9483,-0.207148,0.03812,0.943486,18.72965,-2.469122,12.22061
92826.77,19.8,732.8505,-0.333613,0.021519,0.982549,11.69517,-1.985618,12.9848
92826.77,19.8,732.8505,-0.165645,-0.079067,0.966924,9.783571,-3.558875,3.189316
92833.47,19.78,732.2534,-0.156855,0.053745,1.027471,8.927725,-4.040164,359.4684
92843.55,19.77,731.3524,-0.251094,0.028843,0.969854,13.59366,-5.859039,355.0239
92859.34,19.84,729.9414,-0.698848,-0.140591,0.899053,17.87331,-8.275933,351.0959
92859.34,19.84,729.9414,-0.232539,0.270542,1.134404,14.15957,-2.431515,351.8001
92859.16,19.85,729.9572,-0.133418,0.047397,0.970342,13.33612,-1.008322,354.115
92860.7,19.88,729.8198,-0.204219,-0.067349,0.945439,6.894215,2.524665,357.2385
92856,19.87,730.2399,-0.021113,0.069858,0.926885,7.064106,1.444871,359.8439
92852.94,19.86,730.5148,-0.105586,-0.032681,0.941045,5.580086,1.821632,0.784302
92856.8,19.85,730.1686,-0.203242,0.043979,1.001104,5.99779,3.167502,2.765427
92855.78,19.84,730.2611,-0.086543,0.091831,0.969365,5.16567,3.836613,4.379562
92851.28,19.82,730.6627,0.052129,0.258335,1.071416,2.16495,6.830332,6.980408
92848.67,19.78,730.8953,-0.069453,0.12894,1.041631,3.631743,6.145346,7.987137
92849.7,19.75,730.8027,0.027227,0.135776,0.984014,4.386191,4.239185,6.971191
92858.86,19.75,729.9836,-0.302363,-0.054653,0.972783,6.54083,-1.300562,6.035416
92869.81,19.76,729.006,-0.091914,-0.078091,0.843389,6.273558,2.149735,8.14769
92843.42,19.75,731.3629,-0.102656,0.070347,1.007939,8.793242,6.052397,12.13385
92837.63,19.77,731.8834,-0.160273,0.144077,0.972295,7.685634,8.153786,17.38461
92824.16,19.77,733.0857,-0.11877,0.279819,1.01917,5.076181,12.10066,21.53264
92826.28,19.75,732.8954,-0.09582,0.198276,0.956182,0.25946,13.21007,23.3373
92825.25,19.71,732.9879,-0.051387,0.194858,0.950322,-2.467255,12.36311,25.92618
92826.7,19.68,732.8585,-0.096797,0.24564,1.04749,-3.421937,10.26358,28.17238
92822.76,19.68,733.2099,-0.083125,0.16312,0.986455,-1.046115,9.060196,30.10818
92827.79,19.7,732.7607,0.042852,0.267124,0.994756,-0.237343,8.311829,31.1196
92826.83,19.7,732.8479,-0.014277,0.176792,0.951299,0.504855,10.96685,33.51752
92824.97,19.68,733.0143,-0.057246,0.152866,0.983037,1.763079,9.712242,36.09218
92824.97,19.68,733.0143,-0.134883,0.140659,0.959111,3.686532,8.453786,38.11249
92828.34,19.65,732.7131,-0.00793,0.145054,0.923467,5.937646,6.266055,38.77478
92831.5,19.63,732.4304,-0.01623,0.130405,1.022588,3.592329,5.182769,40.02489
92799.44,19.62,735.2946,-0.040645,0.004429,0.933721,-0.265442,6.100171,40.82158
92782.8,19.6,736.7822,-0.040645,0.106968,0.940068,0.153667,6.153041,41.76852
92778.09,19.59,737.205,-0.102168,0.140659,0.965947,1.104614,7.245861,42.24139
92772.36,19.57,737.7176,-0.010859,0.313511,1.034795,1.59823,10.02472,42.98093
92772.23,19.56,737.7281,0.012578,0.21439,0.961553,2.92235,10.45473,43.53638
92769.2,19.55,737.9977,-0.09582,0.198765,1.009404,3.55198,10.86042,44.73857
92769.8,19.54,737.9448,-0.098262,0.185581,0.972783,3.858971,11.71883,45.9097
92769.05,19.53,738.0135,-0.104121,0.170933,0.958623,5.960094,10.11163,46.69922
92769.38,19.53,737.9844,-0.116816,0.185581,0.972295,6.399383,10.37044,47.75797
92768.14,19.5,738.0928,-0.092891,0.186558,0.991826,5.751589,10.51167,48.87273
92767.59,19.48,738.143,-0.075801,0.230015,0.989385,5.961286,10.74201,50.589
92768.16,19.47,738.0928,-0.180781,0.075718,0.951787,8.053522,10.93627,52.06843
92762.3,19.48,738.616,-0.14123,0.158237,0.980596,8.168756,10.2687,53.19134
92768.41,19.5,738.069,-0.183223,0.132358,0.971807,10.18431,9.20344,52.71688
92766.77,19.5,738.217,-0.205684,0.112827,0.964482,10.69443,8.856094,54.48601
92762.88,19.5,738.5657,-0.229121,0.107944,0.948369,11.92541,8.069757,55.50079
92760.06,19.48,738.8168,-0.17834,0.122593,0.963018,10.12188,8.096928,56.61761
92765.53,19.47,738.3253,-0.185664,0.143101,0.998662,9.395054,7.944754,57.78983
92764.78,19.46,738.394,-0.138789,0.307163,0.991826,8.593821,8.512155,58.91074
92760.97,19.44,738.7349,-0.144648,0.153843,0.998174,5.853486,9.384404,60.93286
92761.98,19.4,738.645,-0.08166,0.12894,1.002568,6.33025,7.426596,62.55577
92762.31,19.41,738.616,-0.093867,0.123569,0.978643,5.582389,6.601789,63.65734
92762.31,19.41,738.616,-0.127559,0.158726,1.030889,6.487918,8.025197,64.22707
92765.2,19.4,738.357,-0.172969,0.214878,1.037236,7.184886,8.060527,65.28361
92762.9,19.4,738.5631,-0.11584,0.143589,0.986455,6.975503,7.282722,67.83477
92764.64,19.41,738.4072,-0.111934,0.189976,0.986455,8.138943,8.224981,71.99041
92764.94,19.41,738.3808,-0.179316,0.047886,1.008428,6.443389,6.478187,74.3131
92765.86,19.4,738.2989,-0.031855,0.079136,1.00501,3.910268,5.641757,75.36425
92766.21,19.36,738.2672,-0.143184,0.056187,0.997197,5.786674,3.844367,76.75107
92764.89,19.36,738.3834,-0.134395,0.037144,1.011357,6.388542,2.941174,77.67751
92764.89,19.36,738.3834,-0.17541,0.068394,1.059209,5.975646,3.423379,79.06724
92766.38,19.35,738.2513,-0.088984,0.118687,0.983525,7.620265,3.717175,80.54465
92766.76,19.32,738.217,-0.094355,0.179722,0.994268,6.72106,6.355899,83.20576
92768.22,19.29,738.0875,-0.169551,0.166538,0.997197,7.448307,7.815396,84.30727
92766.01,19.31,738.2857,-0.11877,0.155796,0.982549,6.50536,8.151323,86.46102
92763.88,19.29,738.476,-0.172969,0.11478,0.968877,8.83555,7.519671,87.78493
92761.81,19.28,738.6609,-0.154902,0.08353,0.969365,8.784568,5.670911,89.14417
92765.92,19.26,738.291,-0.145625,0.108433,0.969854,7.860186,5.398058,89.59444
92762.28,19.26,738.6186,-0.123164,0.08353,0.966924,7.137147,4.944119,90.04168
92764.22,19.25,738.4442,-0.17541,0.276401,1.016729,5.943871,4.612507,90.96174
92763.2,19.25,738.5367,-0.104121,0.059604,1.001592,5.303098,3.230031,92.36079
92769.33,19.24,737.9871,0.078008,0.043491,0.943975,-1.145819,4.616743,91.83314
92767.52,19.22,738.1483,-0.114863,0.108433,1.051885,1.587699,6.293518,94.41699
92768.48,19.22,738.0637,0.167363,0.27103,1.093877,4.035581,8.098065,94.12992
92771.56,19.23,737.7863,-0.151973,0.202671,1.020146,5.679513,7.027923,95.38374
92772.02,19.24,737.7466,-0.131953,0.054722,0.907354,5.127914,6.123491,97.05102
92780.98,19.25,736.946,-0.043574,0.151401,1.014287,3.372021,6.522358,98.97443
92783.33,19.26,736.7373,-0.139277,0.16605,0.944951,2.625413,5.866339,100.6206
92780.39,19.26,736.9989,-0.07873,0.172397,1.00501,2.611979,5.855965,102.2072
92778.27,19.24,737.1891,-0.020625,0.119175,0.989873,4.311919,7.536862,102.8717
92773.41,19.22,737.6225,-0.150996,0.187534,0.999639,5.588771,6.232961,104.6855
92764.97,19.19,738.3782,-0.103145,0.031284,0.965459,6.304371,6.297419,106.246
92762.42,19.17,738.6054,-0.164668,0.024448,0.967412,6.57108,3.277311,107.1938
92761.77,19.17,738.6635,-0.197383,0.052769,0.965459,9.557237,3.25327,107.7097
92761.77,19.17,738.6635,-0.120234,0.056187,0.927373,9.655992,2.848146,108.3223
92761.37,19.16,738.7005,-0.002559,0.031772,0.962529,8.986647,3.088879,108.6063
92763.08,19.17,738.5472,-0.186641,0.074741,1.0221,9.463907,2.237536,108.853
92758.53,19.17,738.9542,-0.170527,0.001011,0.875615,10.28308,3.779109,110.4244
92763.53,19.18,738.505,-0.099727,0.118687,0.972295,8.126862,4.568659,112.2272
92759.02,19.19,738.9092,-0.03918,0.12064,0.939092,7.489908,3.38582,113.4665
92763.3,19.19,738.5261,-0.206172,0.048374,1.025518,6.096964,3.03762,114.1179
92768.23,19.19,738.0875,-0.065547,0.063999,1.049932,6.02424,4.432823,117.6991
92773.25,19.2,737.6357,-0.035273,0.199253,0.845342,5.962707,3.59831,118.8595
92769.64,19.2,737.9607,-0.097773,0.040073,1.000615,5.340155,2.334596,118.9583
92771.28,19.2,737.8127,-0.083125,0.115269,0.981572,3.970327,3.057532,119.0774
92773.31,19.21,737.6304,-0.040156,0.075229,1.008916,2.738132,3.50587,118.3352
92769.73,19.21,737.9501,-0.031367,0.105991,1.032842,0.622181,5.184636,120.3814
92772.69,19.21,737.6859,-0.026484,0.105503,0.974248,3.16393,5.541567,120.3019
92774.16,19.23,737.5564,-0.088984,0.015171,0.974248,4.867116,3.706386,122.0251
92771.77,19.22,737.7704,-0.075313,0.02689,1.024541,3.195382,1.592375,124.5475
92772.88,19.23,737.67,-0.053828,-0.019985,1.011846,2.997566,0.984821,128.5734
92771.3,19.24,737.8127,-0.044551,0.012241,1.043096,2.067118,1.414701,134.9401
92768.64,19.23,738.0479,-0.039668,-0.006802,0.952764,2.756923,0.640264,144.262
92768.67,19.24,738.0452,-0.026973,-0.000454,0.984014,1.555576,0.107894,154.3736
92770.7,19.24,737.8655,-0.043086,0.042515,1.011846,2.506615,2.808405,167.1845
92764.33,19.23,738.4337,0.092168,0.163608,0.962041,-0.416815,5.413175,181.7428
92768.41,19.24,738.069,0.116094,0.075229,0.976201,-5.278954,6.022886,196.8565
92772.05,19.25,737.744,0.13123,0.208042,0.997686,-8.021427,5.344166,213.2821
92764.81,19.25,738.3914,0.058477,0.251499,0.991826,-7.10322,5.556671,228.0023
92767.45,19.25,738.1562,0.024785,0.110874,1.047979,-5.076598,4.365875,238.6231
92767.45,19.25,738.1562,0.080449,0.071812,0.881475,-3.446784,3.80878,248.1015
92764.91,19.26,738.3834,0.071172,0.05814,1.103154,-4.924371,5.154018,249.1948
92770.17,19.26,737.9131,0.064336,0.19437,0.860967,-5.332322,9.075194,247.2744
92772.53,19.26,737.7017,0.357793,0.037632,1.075322,-2.850129,9.211843,245.6475
92772.53,19.26,737.7017,-0.046016,0.08939,0.92835,-1.56926,6.983745,242.5314
92768.98,19.27,738.0188,0.203496,0.129429,1.062139,-1.886766,6.548567,234.1296
92762.41,19.27,738.6054,0.018926,0.143101,0.903447,-4.263722,8.621135,227.1104
92761.75,19.27,738.6661,0.100957,0.124058,1.06751,-5.494087,9.170618,220.6825
92762.11,19.27,738.6318,0.275762,0.131382,0.966436,-10.58417,7.583297,212.8354
92765.78,19.28,738.3042,0.206914,0.186069,0.930303,-17.56224,10.2718,202.1266
92767.82,19.29,738.1219,0.503301,0.290073,0.864385,-26.12571,11.0095,199.0246
92762.59,19.29,738.5895,0.576055,0.234409,0.824346,-32.18051,12.50281,199.4963
92764.86,19.29,738.3861,0.442754,0.177769,0.882451,-24.71164,9.919862,204.8019
92763.7,19.3,738.4918,0.231328,0.165073,0.972783,-13.00145,6.806442,211.3899
92764.36,19.3,738.431,-0.016719,0.122104,0.985967,-2.618488,6.097531,216.1832
92763.38,19.31,738.5208,-0.225215,0.099644,0.940068,9.177453,6.132076,221.5318
92766.76,19.32,738.217,-0.357051,0.123081,0.920537,18.92551,6.550151,225.8615
92762.48,19.31,738.6001,-0.47375,0.135288,0.893193,23.66508,6.879118,227.3669
92765.44,19.32,738.3359,-0.345332,0.096226,0.907842,14.33241,4.412035,224.1135
92763.53,19.32,738.505,-0.196895,0.053745,0.92542,10.69651,0.654806,223.5396
92772.38,19.32,737.715,-0.133418,-0.145474,0.980107,7.634992,-9.24906,222.0712
92773.43,19.33,737.6198,-0.084102,-0.311489,0.935186,5.769962,-16.87524,221.6085
92774.15,19.33,737.5564,-0.059199,-0.357876,0.906377,3.432961,-22.64376,221.4323
92774.24,19.34,737.5485,-0.018672,-0.448696,0.952275,1.446949,-22.85564,222.3617
92781.21,19.35,736.9249,-0.05334,-0.22311,0.983037,2.30881,-12.46076,224.8588
92772.66,19.35,737.6912,-0.031855,0.060581,0.986455,1.85054,-1.157699,227.3842
92766.38,19.35,738.2513,-0.002559,0.184604,0.983037,0.901627,8.73901,230.4733
92759.89,19.36,738.8326,-0.029902,0.376499,0.938604,0.476669,16.50086,233.0747
92759.53,19.35,738.8643,-0.031855,0.341831,0.944463,1.350322,16.60314,233.1161
92764.23,19.36,738.4442,-0.03918,0.277378,0.968877,2.451689,15.48818,232.9742
92764.59,19.37,738.4099,-0.058711,0.213413,0.984502,2.93667,12.23948,233.3052
92764.59,19.37,738.4099,-0.057734,0.171421,0.974248,3.366466,8.995478,233.6484
92767.91,19.37,738.114,-0.067988,0.042515,1.005498,3.960375,3.819003,233.8666
92769.59,19.37,737.9633,-0.002559,0.084019,1.035283,2.041579,3.867302,232.2886
92764.95,19.37,738.3782,0.056035,0.108921,0.978643,-1.355311,7.440761,225.2321
92769.63,19.38,737.9607,0.035039,0.119175,1.000615,-2.863971,10.37499,213.7967
92764.42,19.38,738.4257,-0.102656,0.106968,0.958135,-1.093858,11.04252,199.0294
92769.63,19.38,737.9607,-0.031855,0.158237,1.020146,0.733444,9.640414,182.9942
92776.66,19.39,737.3318,-0.075313,0.19437,0.958135,3.795805,10.42266,168.5681
92775.34,19.39,737.4507,-0.055293,0.110386,0.996221,3.657075,8.773997,156.927
92791.84,19.4,735.9737,-0.154414,0.060581,0.937139,6.838003,6.697289,146.5209
92768.56,19.44,738.0558,-0.149043,0.022495,1.063115,7.296146,3.124106,134.2844
92766.33,19.45,738.2566,0.143438,0.051304,0.983525,0.950465,3.080863,117.8284
92767.76,19.43,738.1271,0.035527,0.046421,1.005498,-5.417524,5.720267,95.63919
92769.55,19.41,737.9686,0.044805,0.191929,1.038213,-6.459104,10.17893,76.15691
92766.48,19.39,738.2408,0.016484,0.225132,0.981084,-7.660892,12.74597,61.40264
92764.03,19.38,738.4601,0.086797,0.25394,0.964482,-6.975041,13.09507,48.49255
92760.48,19.38,738.7798,0.04041,0.260776,0.924932,-4.762871,13.41372,36.44418
92762.81,19.39,738.571,0.080937,0.297886,0.87708,-4.16067,16.03203,29.11101
92764.88,19.4,738.3861,-0.077754,0.154819,1.135869,-1.86084,13.99156,29.37218
92765.17,19.39,738.3597,-0.024043,0.277378,0.800908,-2.505298,13.1279,33.54291
92767.18,19.4,738.18,0.074102,0.320347,1.025029,-5.31453,13.89943,38.84521
92767.18,19.4,738.18,0.178105,0.176304,0.970342,-9.334071,9.047606,42.93732
92763.56,19.4,738.5023,0.123906,0.165562,0.979131,-6.900503,9.664023,45.2169
92765.95,19.41,738.2883,-0.006953,0.098179,1.023564,-3.81572,7.341944,48.12743
92765.3,19.41,738.3491,0.267949,-0.121548,1.026006,-7.382669,6.709645,50.6981
92765.3,19.41,738.3491,0.098027,0.158726,0.832158,-7.477093,6.672742,43.58351
92771.94,19.41,737.7546,0.022344,0.157749,1.1471,-4.471961,9.435055,41.13864
92768.65,19.41,738.0479,-0.039668,0.274448,0.755986,-3.655412,7.956883,41.90646
92768.98,19.42,738.0188,0.13416,0.178257,1.070928,-5.522547,8.037409,43.30296
92770.36,19.42,737.8946,0.088262,0.320835,0.752568,-6.378233,3.844831,42.80589
92768.38,19.42,738.0717,0.02332,0.159702,1.110967,-2.899924,6.888076,44.31946
92768.12,19.43,738.0955,-0.046504,0.418979,0.817998,-1.886977,5.622011,48.50928
92771.05,19.43,737.8339,0.039434,0.050327,1.150029,-4.466172,5.149184,50.9232
92771.8,19.44,737.7678,0.069707,0.111851,0.854131,-6.102394,1.125305,49.14177
92772.75,19.43,737.6806,0.056523,0.078159,1.245732,-2.705113,3.402555,50.62688
92774.73,19.43,737.5035,0.090703,0.225132,0.764775,-1.511574,3.573796,56.03763
92769.52,19.44,737.9713,0.035527,0.042026,1.20374,-3.917481,3.421587,60.19255
92765.61,19.44,738.32,-0.048945,0.042026,0.934209,-1.360016,2.16142,92.62704
92765.31,19.45,738.3464,-0.081172,0.070835,0.9679,-3.078272,4.358445,112.6019
92762.98,19.44,738.5552,0.003301,0.047397,0.968877,-1.85284,10.56352,142.1806
92758.44,19.45,738.9621,0.150273,0.174351,1.022588,-9.371774,12.81961,165.6869
92764.39,19.45,738.4283,0.278691,0.287144,0.902471,-15.35637,20.0873,174.5462
92781.72,19.52,736.88,-0.076289,-0.140591,0.957158,2.131815,-5.967652,176.315
92765.38,19.53,738.3412,0.013555,-0.001919,0.994268,-2.752606,-2.770163,134.9698
92798.14,19.51,735.4109,0.190313,-0.137173,0.962529,-15.40812,-11.89847,299.2175
92786.86,19.5,736.4202,-0.008418,-0.049771,1.020635,3.862251,-1.878528,302.8713
92773.7,19.5,737.5961,-0.379023,0.071812,0.937139,16.41178,5.451696,305.9673
92773.7,19.5,737.5961,-0.30627,0.063022,0.807256,20.27188,8.073041,305.3856
92781.8,19.49,736.8721,-0.05334,-0.22604,0.963994,2.906382,-12.20553,306.2099
92775.22,19.49,737.4613,0.10877,-0.039517,0.961553,-5.007233,-1.833097,312.0823
92768.69,19.46,738.0452,0.278691,0.050327,0.971318,-13.87906,0.419767,318.892
92772.55,19.45,737.6991,0.286992,-0.019497,0.856084,-17.01323,-6.318256,329.1556
92777.16,19.45,737.2869,0.258184,0.02396,0.708135,-16.28081,-12.42895,328.7488
92764.39,19.45,738.4283,0.144414,0.125034,0.745244,-12.7433,-11.44628,326.6151
92771.72,19.46,737.7731,0.05457,-0.241665,1.252568,-9.472592,-9.177852,331.3752
92762.21,19.47,738.6239,0.230352,-0.200649,1.18958,-10.51276,-10.71748,342.8841
92769.09,19.46,738.0082,0.295781,0.001987,0.724736,-21.00393,-16.08814,335.9123
92780.98,19.47,736.946,0.450078,-0.361294,1.050908,-25.20304,-16.05665,341.2929
92778.69,19.47,737.1522,0.431523,-0.220669,0.767217,-24.88002,-18.39546,347.01
92788.62,19.48,736.2617,0.328984,-0.261196,1.042119,-20.79069,-15.83784,346.3851
92784.27,19.47,736.6501,0.090703,0.040073,0.901006,-0.679581,-5.674024,349.271
92772.55,19.45,737.6991,-0.33166,0.06937,0.896123,13.3675,0.954362,351.5046
92782.13,19.42,736.843,-0.371699,0.155796,0.770635,22.61571,3.69711,344.829
92782.13,19.42,736.843,-0.575312,-0.036099,0.995732,23.34853,6.469065,341.537
92781.29,19.47,736.917,-0.188594,0.172886,0.888311,14.69556,0.466351,333.0051
92769.06,19.5,738.0109,-0.00793,-0.2402,1.187627,-5.174255,-4.618213,333.487
92795.49,19.47,735.6487,0.439824,-0.207974,0.671514,-24.30714,-14.69219,339.9417
92779.31,19.47,737.094,0.740117,-0.281704,0.805791,-33.93753,-20.12674,342.2589
92779.88,19.46,737.0438,0.383184,-0.194302,0.684209,-23.12292,-17.90367,340.3774
92800.53,19.45,735.1968,0.186895,-0.262661,1.194951,-3.655581,-7.871109,340.2206
92770.48,19.44,737.884,-0.369258,0.048374,0.845342,16.95528,-0.21865,338.6492
92785.02,19.44,736.584,-0.411738,0.063022,0.867314,25.91212,5.964309,340.998
92783.62,19.47,736.7109,-0.465937,0.084507,0.921025,21.95711,-0.258134,336.6257
92774,19.5,737.5696,-0.176387,-0.023403,1.085088,3.528791,-3.661655,335.8796
92788.14,19.5,736.3066,0.086309,-0.159634,0.926396,-14.9963,-11.04019,339.0996
92781.55,19.46,736.8932,0.42127,-0.15231,0.734014,-26.74059,-14.94121,350.3692
92782.45,19.45,736.8139,0.408086,-0.085415,0.8346,-20.06852,-8.418468,356.7385
92795.3,19.45,735.6646,0.064336,-0.11813,1.038701,2.334255,-3.798011,6.246155
92777.52,19.45,737.2552,-0.267207,0.110874,0.889775,27.91669,8.488673,10.92767
92772.73,19.47,737.6832,-0.531367,0.067905,0.701787,33.63009,9.722796,14.93573
92777.05,19.47,737.2975,-0.418574,0.168979,0.860479,18.9751,5.349614,11.94836
92778.31,19.5,737.1838,0.142461,-0.144985,0.998174,-4.984753,-3.951146,8.348328
92778.31,19.5,737.1838,0.346074,-0.084438,0.840947,-23.8168,-9.034589,10.60329
92795.59,19.48,735.6381,0.371953,-0.187954,0.935674,-22.87131,-10.8577,18.64101
92792.77,19.46,735.8918,0.266484,-0.312954,0.912725,-4.333982,-19.67964,20.54286
92837.88,19.5,731.8597,-0.093379,-0.639614,0.810674,4.637345,-32.00366,10.63245
92837.88,19.5,731.8597,-0.048457,-0.639126,0.762822,5.433768,-33.04217,7.330185
92837.44,19.53,731.8993,-0.049922,-0.385708,0.929326,2.619646,-18.93339,11.951
92846.22,19.55,731.1146,0.097051,-0.096646,0.986455,-4.508443,-4.446851,17.08365
92774.38,19.54,737.5353,0.113652,0.14603,0.985479,-9.391878,5.021715,23.87912
92774.38,19.54,737.5353,0.191777,0.150425,0.930303,-9.946531,6.282278,28.04353
92766.69,19.53,738.2223,0.123906,-0.039028,0.99085,-4.837409,-1.705282,26.5807
92765.64,19.52,738.3174,0.003789,-0.383755,0.943975,2.389961,-17.09425,17.29774
92806.98,19.51,734.6208,-0.092891,-0.333462,0.909795,5.849011,-18.21574,16.64111
92856.62,19.54,730.1844,0.141973,-0.334438,0.959111,-9.938047,-17.89564,17.83369
94683.94,19.6,568.1946,0.39002,-0.311489,0.840947,-32.65366,-24.92938,30.68251
92783.52,19.6,736.7188,0.525273,-0.392056,0.669561,-31.79745,-28.14275,36.46881
92793.02,19.56,735.8707,0.322637,-0.269985,0.97376,-9.902097,-17.68708,33.99323
92770.52,19.55,737.8814,-0.076289,-0.134243,1.055303,13.12833,-2.895933,35.14606
92767.73,19.53,738.1298,-0.392695,0.092319,0.843389,25.84099,4.405367,38.51686
92769.67,19.53,737.9554,-0.375605,0.073276,0.958135,18.83299,1.665337,32.84119
92768.16,19.54,738.0928,-0.433223,-0.065884,1.007451,4.705482,-4.056694,27.62054
92773.42,19.54,737.6225,-0.144648,-0.292446,0.869756,5.841895,-20.2929,26.41051
92838.02,19.56,731.8464,-0.121699,-0.515591,0.7721,8.295779,-33.0657,22.86115
92783.2,19.57,736.7479,-0.122676,-0.446743,0.960576,5.522906,-23.06942,26.03885
92816.66,19.6,733.7568,-0.022578,-0.215298,0.942021,-0.008073,-7.491327,32.38037
92760.61,19.62,738.7666,0.206426,0.057163,1.037236,-10.46861,5.331666,38.62637
92774.81,19.59,737.4983,0.274785,0.178257,0.922002,-14.51614,10.55977,43.68413
92771.92,19.56,737.7546,0.215703,0.018589,0.955205,-9.233855,-0.931206,46.91223
92771.83,19.55,737.7651,0.258672,-0.133755,1.01624,-11.15912,-12.20469,45.43571
92783.29,19.54,736.7399,0.393438,-0.32272,0.83167,-28.26676,-23.21177,49.58365
92789.72,19.53,736.1639,0.464238,-0.318325,0.742314,-29.54379,-24.9473,53.25391
92774.39,19.51,737.5353,0.15125,-0.152798,1.185674,-6.722826,-11.04757,51.78638
92774.39,19.51,737.5353,-0.185176,-0.009731,0.983037,15.20625,3.572196,57.42529
92772.36,19.5,737.7176,-0.317988,0.148472,0.860967,24.76923,9.831491,62.21642
92776.6,19.49,737.3371,-0.322871,0.139194,0.979131,16.49525,4.044306,55.55769
92772.3,19.49,737.7229,-0.246699,-0.05563,1.011357,7.236938,-3.397758,55.26126
92772.3,19.49,737.7229,-0.093867,-0.353481,0.879033,7.65048,-21.16102,50.61697
92776.96,19.5,737.3054,-0.059687,-0.431606,0.790654,7.226724,-28.16856,49.9977
92778.05,19.55,737.2076,-0.0675,-0.396938,1.016729,1.684438,-16.98032,54.68729
92778.05,19.55,737.2076,0.146367,-0.119595,0.992803,-8.567104,-8.61939,56.96112
92775.16,19.55,737.4666,0.413945,-0.176235,0.795049,-24.5476,-14.39453,62.19744
92792.97,19.52,735.8733,0.396855,-0.253384,0.832646,-22.27592,-16.71829,64.88104
92791.83,19.5,735.9763,0.328984,-0.249478,0.950811,-14.80065,-15.46797,65.71175
92771.23,19.45,737.818,0.163457,-0.129849,1.04749,-9.573953,-11.00264,62.50668
92771.23,19.45,737.818,0.101934,-0.13229,0.983037,-8.955023,-9.100435,60.16428
92774.24,19.42,737.5485,0.12293,-0.154751,0.961553,-7.502621,-9.406187,60.56106
92770.36,19.42,737.8946,0.120488,-0.153774,0.972783,-7.316624,-9.81569,59.94248
92768.95,19.41,738.0214,0.106328,-0.182095,0.982061,-5.924344,-10.86649,59.01579
92768.02,19.42,738.1033,0.202031,-0.383267,0.860479,-7.457804,-11.9136,57.99984
92769.64,19.42,737.9607,0.198613,-0.110806,0.927861,-9.967654,-15.15183,52.6302
92765.66,19.41,738.3148,0.240117,-0.362271,0.951299,-9.772268,-16.18577,55.72054
92762.64,19.4,738.5869,-0.055781,-0.134243,1.069951,-7.902351,-15.76688,58.62589
92762.24,19.4,738.6213,0.197148,-0.315396,0.9679,-8.245291,-16.55855,62.87198
92766.78,19.39,738.2144,0.268438,-0.303188,0.924932,-12.19252,-18.50334,63.39039
92776.27,19.38,737.3688,0.434941,-0.361782,1.077275,-15.5371,-13.79494,69.42384
92794.94,19.38,735.6962,0.235234,-0.220669,0.659795,-16.40348,-8.689095,69.58725
92794.28,19.38,735.757,0.086797,-0.026333,0.769658,-16.52762,-8.926798,66.91868
92791.66,19.38,735.9922,0.140996,0.140171,1.137334,-10.05513,-13.35379,66.1694
93042.66,19.38,713.5751,0.269902,-0.360317,0.979131,-11.40459,-15.35945,70.43317
93042.66,19.38,713.5751,0.158086,-0.437466,0.940068,-13.29291,-18.89759,75.72423
92770.73,19.39,737.8603,0.229375,-0.200649,0.852666,-14.21339,-20.63968,83.18
92776.27,19.38,737.3688,0.239141,-0.299771,0.979131,-13.97115,-17.31606,92.94156
92788.58,19.36,736.267,0.211797,-0.272915,0.92835,-12.82495,-18.49305,97.92487
92784.27,19.36,736.6528,0.378301,-0.157192,0.924932,-11.22919,-18.96474,100.6745
92784.27,19.36,736.6528,0.263555,-0.304653,0.924932,-13.65486,-18.92241,98.88932
92783.19,19.35,736.7479,0.273809,-0.462368,0.877568,-13.8274,-24.01541,97.8743
92786.11,19.35,736.4863,0.329961,-0.332974,0.818975,-18.01159,-23.95312,94.62988
92788.05,19.34,736.3119,0.328496,-0.246548,0.896611,-18.68331,-20.99723,93.08183
92793.78,19.32,735.8019,0.267949,-0.256802,0.93665,-16.77368,-20.66397,97.36378
92792.02,19.31,735.9578,0.296758,-0.270962,0.864385,-17.03908,-18.85413,98.68092
92788.24,19.29,736.296,0.378789,-0.153286,0.871709,-18.2702,-18.37581,99.32675
92791.63,19.3,735.9948,0.336797,-0.190884,0.890264,-18.44143,-18.47231,101.4289
92789.91,19.29,736.1454,0.270879,-0.543423,0.92835,-18.26083,-26.19783,103.7278
92794.46,19.29,735.7411,0.321172,-0.31979,0.847783,-17.9558,-23.36327,99.41818
92793.5,19.29,735.8257,0.178594,-0.419888,0.856084,-17.42654,-19.77773,95.89558
92788.6,19.29,736.2643,0.330449,-0.150356,0.800908,-17.45856,-18.87622,89.59818
92797.15,19.29,735.5007,0.255742,-0.192349,0.847783,-17.64244,-17.34373,79.96252
92780.05,19.29,737.028,0.311895,-0.154751,1.17249,-17.00809,-13.18,71.31896
92771.52,19.26,737.7916,0.210332,-0.237759,0.786748,-16.52028,-16.4906,79.79287
92771.52,19.26,737.7916,0.194219,-0.186001,0.881963,-14.30525,-16.1731,94.38063
92771.48,19.26,737.7942,0.208379,-0.508267,1.046025,-9.600205,-19.15844,117.8597
92782.37,19.26,736.8218,0.152227,-0.387661,0.947393,-7.87364,-22.65329,130.5422
92792.27,19.26,735.9367,0.237676,-0.425747,0.918584,-9.961003,-22.72042,136.3
92792.27,19.26,735.9367,0.250371,-0.35397,0.840459,-12.01969,-23.66673,139.5658
92786.64,19.26,736.4387,0.213262,-0.319302,0.888799,-13.23565,-21.80013,142.2963
92786.42,19.24,736.4598,0.301641,-0.33981,0.867803,-14.41525,-23.15124,143.7634
92795.66,19.17,735.6328,0.250371,-0.337856,0.852666,-15.68133,-22.27229,138.6448
92799.24,19.17,735.3131,0.293828,-0.363735,0.9054,-15.52818,-22.476,135.8639
92791.05,19.17,736.045,0.389043,-0.28854,0.815557,-17.65108,-23.4402,126.5391
92784.91,19.14,736.5946,0.290898,-0.216274,0.864873,-16.18322,-20.52753,118.7667
92782.88,19.14,736.7769,0.045293,-0.244106,0.981572,-12.73201,-19.0177,121.5204
92782.28,19.14,736.8298,0.221563,-0.190396,0.883916,-9.437166,-16.57552,122.9059
92785.04,19.16,736.584,0.282109,-0.319302,1.059697,-10.30762,-16.626,122.4954
92777.77,19.15,737.2314,0.137578,-0.19186,0.834111,-11.46251,-15.87961,114.918
92780.44,19.16,736.9936,0.012578,-0.127407,1.069463,-11.78863,-12.66125,114.9555
92778.1,19.16,737.2023,0.109258,-0.253872,0.937627,-9.194708,-14.13945,125.1893
92782.38,19.15,736.8218,0.351445,-0.275845,0.947881,-12.53475,-13.87077,130.5202
92779.69,19.15,737.0623,0.153691,-0.283169,0.871221,-15.51148,-17.16559,131.3863
92780.73,19.16,736.9672,0.210332,-0.081509,0.954717,-14.01362,-14.24264,136.5821
92779.48,19.16,737.0782,0.190313,-0.341274,0.968877,-11.95906,-11.92046,148.9499
92783.09,19.16,736.7558,0.250371,-0.198208,0.776982,-10.86543,-15.60793,157.0226
92785.04,19.16,736.584,0.370977,-0.440396,1.108037,-12.26556,-20.87864,160.6408
92785.34,19.16,736.5576,0.270879,-0.219204,0.763311,-14.9453,-21.63728,149.7646
92786.13,19.13,736.4863,0.234746,-0.352993,1.085088,-13.53377,-20.90401,144.6579
92785.17,19.14,736.5709,0.323613,-0.16354,0.768682,-11.75564,-21.87285,147.1839
92781.8,19.13,736.8721,0.396367,-0.353481,0.849248,-16.06986,-23.0571,143.2131
92782.78,19.13,736.7849,0.207891,-0.141567,0.805791,-18.29533,-23.84925,130.8233
92777.88,19.13,737.2235,0.194707,-0.213345,1.027471,-15.29481,-19.05068,132.5157
92776.53,19.13,737.3424,0.421758,-0.345669,0.704717,-10.07538,-24.42783,145.4516
92775.98,19.1,737.3926,0.308477,-0.84811,1.423955,-16.24012,-26.83691,134.6224
92776.88,19.1,737.3133,0.197148,-0.122036,0.60999,-17.33676,-20.22879,130.3211
92775.11,19.08,737.4719,0.329473,-0.250454,0.526006,-13.8553,-20.48586,136.295
92775.11,19.08,737.4719,0.368535,-0.553189,1.176885,-16.88543,-23.74463,130.495
92778.77,19.09,737.1442,0.169805,-0.03854,0.821416,-16.97591,-23.81597,121.7945
92780.05,19.08,737.028,0.238164,-0.187466,0.916143,-14.9498,-23.95839,127.8701
92777.65,19.07,737.242,0.49793,-0.725552,1.317998,-17.33865,-26.75098,128.1012
92782.52,19.07,736.8087,0.28748,-0.136685,0.551885,-19.56814,-29.22376,121.6207
92780.87,19.06,736.9566,0.224004,-0.148403,1.093389,-17.99534,-23.65928,124.1489
92787.02,19.06,736.407,0.29041,-0.276821,0.648564,-16.62637,-23.33953,132.0207
92793.56,19.05,735.8204,0.335332,-0.263638,0.850225,-18.47354,-29.17194,134.0186
92786.89,19.04,736.4176,0.268438,-0.159146,0.840947,-17.21567,-21.63395,131.257
92784.13,19.03,736.6633,0.211797,-0.345669,0.997686,-15.53603,-19.84889,136.6396
92781.61,19,736.8906,0.451543,-0.319302,0.947881,-16.53666,-19.69881,141.1393
92784.32,18.98,736.6475,0.358281,-0.188442,0.672979,-16.20951,-24.46542,139.3156
92785.59,18.97,736.5339,0.303594,-0.165493,0.873662,-16.21712,-16.84035,137.4834
92781.56,18.96,736.8932,0.291387,-0.494106,1.119268,-15.6774,-22.87636,144.7043
92785.05,18.95,736.5814,0.393926,-0.328091,0.722295,-16.15621,-23.94161,145.9462
92785.11,18.95,736.5761,0.400273,-0.198208,0.671514,-17.52143,-24.92762,137.0891
92784.84,18.96,736.5999,0.191777,-0.342251,0.964971,-14.67526,-25.7772,135.1152
92780.55,18.96,736.983,0.055059,-0.263638,1.097783,-10.45894,-28.37299,140.6715
92779.33,18.97,737.094,0.195684,-0.186489,0.846807,-7.914762,-24.88701,147.8661
92790.2,18.97,736.1216,0.17127,-0.45895,1.043096,-8.250753,-24.66771,147.8431
92791.45,18.97,736.0081,0.171758,-0.124478,0.732549,-7.596873,-22.7648,146.5483
92786.55,18.97,736.4467,0.177129,-0.477505,1.14124,-8.521135,-18.53785,149.1307
92784.13,18.96,736.6633,0.298711,-0.16647,0.677861,-10.18995,-17.97555,154.2913
92783.17,18.96,736.7505,0.140996,-0.081021,0.866338,-12.30476,-18.42199,149.5966
92781.47,18.95,736.9011,0.218145,-0.479458,1.08167,-8.160725,-18.98922,157.4258
92780.71,18.94,736.9698,0.304082,-0.326626,0.84583,-10.45289,-20.62465,160.2
92808.09,18.92,734.5204,0.024785,-0.152798,0.771611,-0.564639,-13.17446,184.823
92823.22,18.88,733.1702,-0.157344,-0.068325,1.162725,1.051069,-12.51373,209.5031
92818.29,18.88,733.6115,-0.054316,-0.140591,0.838018,-0.511495,-9.57465,227.4822
92814.34,18.88,733.9629,-0.106563,-0.300747,1.056768,-1.665158,-9.255737,255.8716
92815.59,18.88,733.8519,-0.102656,-0.16354,0.961553,-1.42779,-3.160028,280.2766
92824.86,18.88,733.0223,0.155645,-0.105435,0.863896,-5.232128,-5.379008,292.8329
92816.22,18.87,733.7964,0.418828,-0.159634,0.930791,-17.5267,-5.230184,295.5643
92814.25,18.87,733.9708,0.580449,-0.060024,0.794561,-32.93775,-1.257148,295.6266
92816.52,18.87,733.77,0.610234,0.062046,0.731084,-37.84392,4.202529,292.7896
92815.96,18.88,733.8176,0.339727,0.104038,0.893193,-12.5461,2.015437,294.9377
92795.23,18.88,735.6725,-0.186641,0.030796,0.992803,16.90401,-1.665293,297.4273
92800.48,18.88,735.2021,-0.336543,-0.049282,0.908818,26.30882,-4.50381,295.5136
92801.05,18.87,735.1519,-0.100215,-0.485317,0.975713,9.522672,-2.975954,290.4793
92804.39,18.87,734.8534,-0.061641,-0.233853,0.920049,-4.843372,-5.947302,273.578
92813.27,18.87,734.0607,0.07166,-0.141567,0.989873,-5.913472,-9.559229,249.3164
92809.59,18.87,734.3883,0.192754,-0.124966,1.085088,-7.541017,-9.905999,230.0948
92803.67,18.87,734.9168,0.26209,-0.148892,0.989873,-9.579859,-9.886249,216.4401
92826.95,18.72,732.8373,-0.154902,-0.583462,1.131963,-11.45858,-20.31785,319.5324
92819.47,18.73,733.5058,0.364629,-0.210415,1.012822,-16.81494,-15.1868,321.7244
92815.52,18.73,733.8572,0.220586,0.013706,0.812627,-24.2634,-4.97926,327.5155
92801.63,18.72,735.0991,-0.174434,-0.176724,1.011846,6.922392,-12.47591,322.8826
92798.28,18.71,735.4003,-0.414668,-0.29147,0.890264,22.72409,-17.82444,319.535
92809.27,18.66,734.4174,0.46082,-0.068325,0.956182,-16.4858,-7.057442,344.7335
92801.97,18.65,735.07,0.30457,-0.498989,0.871709,-13.96679,-29.99366,340.8615
92829.96,18.66,732.5678,0.257207,-0.573208,0.713506,-16.66245,-38.86276,339.9083
92829.96,18.66,732.5678,0.185918,-0.440884,0.962529,-4.429669,-16.53328,343.1127
92805.42,18.67,734.7609,0.175176,-0.361782,0.885869,-10.03203,-24.10624,344.9355
92818.59,18.67,733.5825,0.203008,-0.350063,0.833135,-11.23452,-29.79817,343.2484
92821.22,18.67,733.3499,0.492559,-0.37936,0.961553,-19.09845,-25.64723,345.3787
92816.72,18.68,733.7515,0.556523,-0.28854,0.827764,-43.22495,-14.74563,348.089
92814.71,18.68,733.9312,0.653691,-0.140591,0.439092,-51.29128,-14.71208,355.1922
92813.7,18.67,734.0211,0.505254,-0.035122,0.763799,-31.44621,-9.787247,357.092
92807.81,18.68,734.5469,0.107793,0.140171,1.053838,-9.874379,1.322884,359.0186
92810.7,18.67,734.2879,-0.151484,0.230503,0.978154,6.188295,8.420687,1.498001
92810.11,18.68,734.3408,-0.353145,0.227573,0.866826,15.65633,8.652658,3.622772
92827.27,18.65,732.8082,0.026738,-0.37106,0.897588,1.170294,-21.27789,355.5423
92826.44,18.67,732.8822,0.1825,-0.305142,0.922979,-8.865526,-16.8367,356.7733
92805.16,18.67,734.7847,0.23377,-0.172817,0.918096,-14.51647,-10.70774,358.3522
92806.67,18.66,734.6499,0.225469,-0.153286,0.95667,-11.48329,-8.651555,4.77829
92811.36,18.67,734.2298,0.174688,-0.075161,1.009893,-8.621512,-6.05103,4.836685
92809.69,18.67,734.3804,0.107305,-0.039028,0.984502,-6.595212,-2.364011,5.809692
92809.69,18.67,734.3804,0.111211,-0.007778,0.946416,-6.729455,-0.303256,6.264496
92809.59,18.66,734.3883,0.09168,0.013218,1.014775,-6.22999,-0.332015,6.183609
92815.31,18.67,733.8757,0.062871,0.002476,1.015264,-4.354316,-0.087168,7.266708
92816.63,18.67,733.7595,0.075078,-0.013149,0.984014,-4.513708,-0.867364,9.050232
92816.63,18.67,733.7595,0.106328,-0.021938,0.982549,-7.098653,-0.444799,10.66965
92822.44,18.66,733.239,0.122441,0.108433,0.982061,-7.534959,2.442235,15.38498
92812.88,18.66,734.095,0.132207,0.118198,1.020146,-5.763155,3.230911,19.6048
92817.58,18.67,733.6749,0.07752,0.022007,0.963506,-4.756456,0.513373,20.22102
92820.77,18.66,733.3895,0.092168,-0.028286,0.941045,-6.026895,-2.09462,18.58636
92817.19,18.66,733.7093,-0.016719,0.11771,1.065557,-7.048504,-1.185442,16.93204
92824.02,18.65,733.0989,0.04627,0.046909,0.968389,-10.22227,0.579084,28.67502
92824.97,18.65,733.0143,0.289922,-0.1777,0.971807,-12.78541,-2.20302,48.91283
92829.96,18.66,732.5678,0.357305,-0.100552,0.872197,-17.03671,-5.530097,67.46661
92827.2,18.64,732.8135,0.21668,-0.023403,1.00501,-16.38676,-8.734628,86.8324
92812.09,18.64,734.1638,0.21375,-0.186978,1.064092,-17.57723,-12.14736,99.49718
92821.36,18.62,733.3367,0.307988,-0.171353,0.887334,-11.38746,-5.818593,104.7109
92826.71,18.63,732.8585,0.125859,0.028843,0.971807,-11.17947,-2.044502,100.8719
92832.89,18.62,732.3062,0.123418,0.142124,0.97376,-12.47985,1.386926,94.91048
92840.21,18.63,731.6509,0.233281,0.110874,0.951299,-14.0465,3.589337,93.57809
92843.2,18.63,731.384,0.159063,0.112827,0.999639,-10.1812,5.037299,95.60652
92853.16,18.61,730.4936,0.113164,0.079136,0.990361,-7.657438,3.975574,95.2739
92853.16,18.61,730.4936,0.124883,0.10355,1.012822,-7.651573,4.642641,95.6582
92850.11,18.56,730.7657,0.151738,0.062534,0.944951,-7.782331,3.367828,97.36879
92851.68,18.56,730.6257,0.124883,0.071812,1.063115,-6.177904,3.870131,98.0616
92837,18.53,731.939,0.083379,0.111362,1.049932,-5.580139,3.194247,95.48553
92837,18.53,731.939,0.067266,0.150913,1.006475,-6.894632,4.879957,94.65053
92843.31,18.51,731.3735,0.065312,0.21439,1.100225,-12.10715,6.446257,105.5494
92802.75,18.49,734.9987,0.095586,0.045933,0.827764,-15.93193,8.066472,124.1878
92802.75,18.49,734.9987,0.280156,0.016636,1.0221,-8.940109,6.765733,142.7722
92808.4,18.5,734.494,0.162969,0.198765,0.967412,-4.627924,3.374723,147.3419
92842.72,18.51,731.4263,-0.054805,0.214878,0.99915,-9.618791,4.558969,141.8411
92818.67,18.5,733.5771,0.161504,-0.102017,1.06458,-14.50354,6.397129,150.0955
92815.13,18.51,733.8942,0.213262,0.000034,0.797002,-14.39814,2.767574,163.1084
92845.67,18.51,731.1621,0.44373,0.054722,1.040654,-15.81777,3.615057,161.6843
92843.97,18.51,731.3154,0.375859,0.044956,0.753545,-18.89861,1.589987,164.217
92856.41,18.5,730.2029,0.411504,-0.373501,0.880986,-18.11813,-8.744366,322.9783
92857.46,18.51,730.1105,0.331914,-0.141567,0.724248,-16.29285,-11.25563,331.789
92855.85,18.51,730.2532,0.104863,-0.144497,1.107549,-14.56279,-10.12731,2.954758
92846.5,18.5,731.0881,0.252324,-0.166958,0.912236,-14.63139,-12.89266,38.25237
92848.43,18.49,730.9164,0.33875,-0.187954,1.075322,-22.65666,-9.782343,33.16208
92843.14,18.49,731.3893,0.328008,-0.113735,0.793584,-34.35663,-5.699967,30.985
92846.2,18.5,731.1146,0.493047,-0.116665,0.774053,-27.57451,-10.61866,42.60121
92844.88,18.5,731.2335,0.291387,-0.168423,0.97376,-14.74104,-11.60588,48.38667
92846.55,18.5,731.0828,0.183965,-0.130337,0.999639,-10.29049,-9.204269,49.81451
92846.5,18.5,731.0881,-0.102168,0.084507,1.026494,-2.115091,-3.746578,52.46864
92840.28,18.5,731.6456,-0.249629,-0.135708,1.015264,18.97701,1.129482,57.44365
92841,18.5,731.5796,-0.560176,-0.015591,0.833135,24.74908,-1.168501,52.16985
92840.25,18.49,731.6483,-0.354609,0.003452,0.981572,20.03979,-1.127531,50.96605
92835,18.49,732.116,-0.088984,-0.015103,1.135381,-7.027421,0.673021,45.85213
92835.92,18.49,732.0341,0.505742,0.144565,0.651982,-36.47927,11.77682,38.44414
92829.94,18.48,732.5704,0.076543,-0.056606,1.133916,2.753429,-5.948462,49.20114
92833.88,18.48,732.2164,-0.333613,-0.228481,0.971318,26.84313,-14.14615,46.44626
92835.16,18.48,732.1028,-0.466914,-0.226528,0.771611,29.11935,-13.82131,45.30228
92835.85,18.48,732.0394,-0.397578,-0.21481,0.958623,13.55106,-9.036211,46.07681
92827.38,18.49,732.7977,-0.17248,-0.11813,0.964971,-0.924797,-4.227732,48.94363
92823.02,18.48,733.1887,0.04627,-0.059048,0.963018,-3.212605,-5.563344,53.25906
92825.61,18.47,732.9562,0.095586,-0.08981,1.030889,-3.96502,-5.079868,56.40855
92841.97,18.47,731.4951,0.056523,-0.16061,1.006963,-3.60952,-7.394321,49.67365
92841.73,18.48,731.5135,0.042852,-0.259243,0.850225,-6.413002,-15.23087,26.63493
92840.42,18.48,731.6324,0.204961,-0.30563,0.829717,-11.87464,-16.36597,2.360886
92840.42,18.48,731.6324,0.214238,-0.456021,0.90833,-14.80678,-19.50589,16.55751
92871.75,18.46,728.8316,0.26502,-0.246548,0.872686,-12.81493,-22.68139,20.13754
92872.8,18.46,728.7391,0.191289,-0.390591,1.224248,-11.9808,-19.6133,25.85754
92867.25,18.47,729.2359,0.221563,-0.080044,0.907354,-11.10835,-15.0961,22.52339
92867.25,18.47,729.2359,0.254277,-0.265103,0.779912,-16.4627,-16.98277,17.55217
92867.58,18.47,729.2068,0.378301,-0.611782,1.359014,-20.62548,-18.21379,4.996872
92869.55,18.47,729.0298,0.061895,0.045444,0.859014,-18.81043,-20.57972,356.7266
92863.9,18.49,729.5345,0.324102,-0.320767,0.885381,-17.53147,-22.83524,0.42543
92863.9,18.49,729.5345,0.382207,-0.287075,0.7096,-20.54339,-22.92888,1.634628
92857.43,18.5,730.1131,0.281133,-0.432095,0.968389,-18.21354,-22.73566,357.6447
92853.69,18.49,730.446,0.32752,-0.16647,0.698369,-19.51074,-20.08319,355.7106
92854.15,18.47,730.4064,0.27625,-0.738247,1.140264,-18.93529,-21.35106,358.2635
92854.15,18.47,730.4064,0.173223,-0.306118,1.073857,-18.78086,-22.08627,359.3242
92870.13,18.29,728.9796,0.194707,0.671421,0.597295,-4.027335,30.80687,174.1496
92872.83,18.3,728.7365,0.149785,0.60355,0.836064,-10.02687,26.63433,171.9905
92839,18.3,731.7593,-0.047969,0.142612,0.986455,5.836702,7.284619,177.7779
92844.36,18.31,731.281,-0.361934,0.171421,0.891729,23.24292,4.661157,183.9076
92848.86,18.3,730.8794,-0.595332,0.136753,0.831182,30.19646,5.050452,190.272
92821.64,18.2,733.3103,0.161016,-0.30856,1.023076,-10.48011,-12.68655,33.21773
92825.45,18.19,732.9694,0.274785,-0.305142,0.927861,-14.01799,-14.69749,34.43468
92814.84,18.18,733.918,0.17957,-0.198696,1.30042,-7.324055,-8.287477,28.5874
92820.09,18.18,733.4503,0.224004,0.039585,0.671514,-6.564162,-6.773072,34.91003
92820.06,18.17,733.4529,0.166875,-0.238247,1.119268,-9.995032,-12.38045,35.70496
92819.41,18.17,733.5111,0.110234,0.021519,0.89417,-9.936464,-12.41657,36.28888
92795.11,18.17,735.683,0.130742,-0.197231,1.283818,-4.706185,-8.458876,46.61328
92791.17,18.17,736.0345,0.161016,0.000522,0.753545,-7.98648,-5.485232,58.74516
92799.05,18.17,735.329,0.395391,-0.278286,1.150518,-12.89444,-12.85706,63.71103
92797.64,18.16,735.4558,0.250859,0.012241,0.713018,-14.58281,-6.326278,56.03437
92802.63,18.17,735.0093,0.278203,-0.361294,1.419072,-6.768425,-6.349325,61.59069
92799.94,18.16,735.2497,0.229375,-0.022915,0.870244,-8.823523,-4.485247,62.54998
92798.63,18.16,735.3686,0.370977,-0.395474,1.215947,-10.33669,-10.06842,59.1932
92804.5,18.16,734.8428,0.126836,0.02396,0.847783,-12.62413,-9.081719,50.334
92796,18.16,735.6038,0.080937,-0.188931,1.150518,-10.15318,-10.04702,60.3661
92801.58,18.16,735.1044,0.298711,-0.167935,0.751104,-12.15594,-10.22197,72.43742
92806.17,18.16,734.6948,0.255742,0.022495,0.712529,-12.83997,-10.71751,79.25727
92805.09,18.15,734.79,0.208379,-0.090786,0.910283,-14.06171,-6.782301,90.56689
92805.52,18.16,734.7529,-0.018184,-0.16061,1.170537,-10.04849,-5.118336,96.13336
92813.34,18.16,734.0527,0.161992,-0.189419,1.014775,-11.82735,-4.466405,101.4508
92820.85,18.15,733.3816,0.21082,-0.137173,0.664678,-13.25349,-10.61964,95.09631
92821.34,18.13,733.3367,0.140508,-0.185513,1.070439,-8.42592,-9.210339,88.76347
92811.23,18.11,734.2404,0.147344,-0.050259,0.716436,-7.534076,-12.27846,90.74282
92811.66,18.12,734.2034,0.305059,-0.383755,0.992803,-10.78656,-12.71215,89.45959
92814.52,18.11,733.9471,0.208379,-0.138638,0.668096,-11.81607,-14.81454,84.80422
92814.52,18.11,733.9471,0.200566,-0.196743,1.172979,-10.03689,-10.00926,82.07819
92810.9,18.11,734.272,0.118535,-0.093716,0.779424,-9.326558,-11.007,85.23671
92808.57,18.1,734.4781,0.375859,-0.345669,1.064092,-12.70196,-10.24756,88.50317
92805.95,18.1,734.7133,0.238652,0.005894,0.694463,-16.16231,-11.11321,85.80532
92805.95,18.1,734.7133,0.140996,-0.032192,1.116338,-15.65666,-7.618579,86.87524
92808.93,18.11,734.4465,0.153691,-0.043911,0.805303,-11.06087,-7.633814,98.01228
92815.83,18.11,733.8308,0.299688,-0.275356,1.069951,-14.36566,-12.46354,101.9015
92823.38,18.11,733.1544,0.245488,-0.051724,0.855596,-15.57312,-10.84006,98.09696
92824.95,18.1,733.0143,0.226934,-0.154751,1.171025,-12.7953,-6.882586,100.8995
92814.77,18.1,733.9259,0.266973,-0.029751,0.705693,-11.75396,-4.956246,108.6533
92813.43,18.1,734.0448,0.362188,-0.183071,0.989385,-14.66597,-9.902296,110.2731
92821.96,18.1,733.2812,0.300664,-0.049282,0.984502,-15.54821,-8.651369,107.0919
92824.23,18.09,733.0804,0.361699,-0.234829,1.172002,-14.58241,-11.64623,107.3875
92826.16,18.09,732.9086,0.238164,-0.061001,0.688604,-13.45903,-11.37764,108.2121
92821.6,18.09,733.3156,0.333379,-0.271938,0.981084,-16.17249,-10.76047,102.9883
92809.98,18.08,734.3513,0.265508,-0.029263,0.767217,-17.84124,-10.90028,98.78601
92812.61,18.08,734.1188,0.278691,0.019565,0.997197,-15.87907,-6.253482,95.28026
92811.92,18.08,734.1796,0.181035,-0.134731,0.967412,-15.00374,-6.066655,98.74091
92813.23,18.08,734.0634,0.221563,-0.02731,0.987432,-12.35144,-6.838917,100.9861
92810.31,18.08,734.3223,0.194219,-0.198208,0.902471,-13.77991,-7.067451,99.7998
92806.05,18.08,734.7054,0.289434,-0.112271,0.943486,-13.5826,-10.71202,103.1196
92808.59,18.07,734.4781,0.173711,-0.101528,0.992803,-12.77972,-8.172929,103.6335
92811.16,18.07,734.2483,0.245,-0.055142,0.968877,-14.28492,-4.429865,99.93439
92812.47,18.07,734.1294,0.192754,0.005894,0.937627,-13.74742,-2.654826,100.9475
92812.47,18.07,734.1294,0.319707,0.0098,0.932256,-16.60956,-2.078325,99.94801
92802.27,18.06,735.0436,0.195195,0.018101,0.970342,-12.72925,-3.337267,102.8179
92787.23,18.07,736.3859,0.082891,-0.055142,0.92835,-9.215278,-3.518114,107.6643
92773.45,18.07,737.6198,0.160527,0.014683,0.982549,-9.406161,-11.09803,110.4674
92773.45,18.07,737.6198,0.160527,-0.218228,1.06165,-8.84886,-8.835689,111.7695
92791.83,18.07,735.9763,0.155156,-0.169888,0.988896,-9.555218,-8.651559,114.5466
92810.86,18.07,734.2747,0.34998,0.002964,1.031865,-12.59392,-4.104568,117.0211
92812.77,18.06,734.103,0.357305,-0.069302,1.036748,-17.99117,-6.704126,115.4926
92804.66,18.07,734.8296,0.308965,0.002476,0.971318,-12.78901,2.165942,114.4107
92819.5,18.05,733.5032,0.059941,0.073276,1.010869,-0.216227,2.718006,116.3824
92805.02,18.01,734.7952,-0.163691,0.065464,0.86292,4.064687,3.947495,118.9526
92806.16,17.99,734.6948,0.151738,-0.145474,0.875615,-1.858172,1.358886,129.573
92803.9,17.96,734.8956,0.210332,-0.133755,0.884404,-8.408945,-3.602273,130.5253
92804.32,17.93,734.8586,0.063848,-0.308071,0.923955,1.61167,-5.172572,119.7229
92814,17.92,733.9946,0.048223,0.132358,1.000127,0.16884,4.885871,111.1729
92816.3,17.92,733.7885,0.299199,0.377964,0.910771,0.149329,6.747248,111.7685
92822.86,17.92,733.202,-0.133906,0.25687,0.938604,1.856006,10.32732,114.0984
92813.47,17.9,734.0422,0.010137,0.306187,1.073369,-1.603419,8.92637,117.2186
92816.39,17.89,733.7806,0.120488,0.159702,0.941533,-2.614768,8.729043,118.8288
92815.05,17.89,733.8995,0.111211,0.199253,1.000127,-5.461019,9.137638,121.36
92811.41,17.89,734.2245,-0.054316,0.216831,0.935186,-0.592753,6.823228,130.6597
92796.31,17.89,735.5747,0.050176,-0.317837,0.818486,4.545701,4.840503,127.4333
92807.37,17.91,734.5865,-0.17248,0.133335,0.964482,11.7703,8.050927,129.7954
92797.16,17.91,735.4981,-0.130977,0.246128,0.961064,5.988294,9.947237,129.9147
92809.23,17.9,734.42,-0.062129,0.279819,0.949834,3.803854,15.42552,130.1414
92812.62,17.88,734.1188,-0.135371,0.415073,0.919561,4.531479,25.09093,131.5437
92819.8,17.87,733.4741,-0.011836,0.460483,0.937139,1.368627,25.73492,131.6482
92818.48,17.87,733.593,-0.03625,0.511265,0.893682,2.427709,28.10127,131.4415
92818.64,17.86,733.5798,-0.104609,0.490757,0.887822,3.301104,26.26039,133.4288
92814.95,17.85,733.9101,-0.063105,0.406284,0.896611,3.158952,23.19071,134.1326
92812.73,17.82,734.1056,0.062871,0.353062,0.958135,-0.747293,24.67704,133.7578
92818.41,17.8,733.601,0.005254,0.227573,0.718389,3.839487,28.80142,135.589
92821.79,17.81,733.2971,0.09168,0.33353,0.927861,4.696259,30.55944,138.1091
92842.72,17.8,731.4263,-0.202266,0.728061,0.697881,2.625697,41.11419,138.4866
92842.72,17.8,731.4263,-0.14416,0.8848,0.539678,1.391889,54.83169,139.9485
92825.73,17.81,732.9456,-0.148555,0.9473,0.398564,-0.691865,61.15922,141.396
92826.52,17.82,732.8743,-0.08459,0.943882,0.368779,-0.180871,62.84029,142.0783
92823.86,17.82,733.1121,-0.248652,0.768101,0.619756,-0.233171,56.86091,142.7012
92823.86,17.82,733.1121,-0.118281,0.732456,0.676885,-1.508468,32.33005,133.5929
92832.55,17.8,732.3353,0.076543,0.129917,0.979131,-2.848494,7.587826,127.2031
92802.77,17.78,734.9987,-0.159785,0.115269,1.145146,-4.354798,3.719528,126.8231
92802.69,17.73,735.004,0.120977,-0.125942,0.774541,-7.185039,3.684889,125.2411
92804.55,17.72,734.8375,0.030645,0.050327,1.0221,-7.328756,3.981165,128.9441
92801.17,17.71,735.1414,-0.08459,0.018101,0.631475,-4.360929,2.472311,134.951
92795.89,17.71,735.6117,0.148809,0.05228,1.145146,-7.373359,2.053373,135.8164
92803.14,17.71,734.9644,-0.043086,0.207554,0.969365,-5.431923,5.36337,135.4159
92799.95,17.72,735.2497,0.174688,0.176304,0.893193,-8.042819,5.4846,130.9293
92799.72,17.7,735.2709,0.051152,-0.000454,1.447881,-3.24841,1.836566,135.4719
92801.69,17.7,735.0938,0.296758,0.05521,0.776494,1.869282,2.833809,140.9289
92798.41,17.7,735.3871,-0.079219,0.008335,0.556768,7.500743,-0.226463,144.1906
92802.97,17.69,734.9802,-0.461543,-0.356899,0.706182,4.968154,-1.154021,149.67
92797.81,17.67,735.4399,0.115605,-0.042935,1.12415,-3.534706,-1.325711,154.8065
92804.94,17.66,734.8032,-0.262324,0.505894,0.906377,0.736307,17.67729,163.6886
92825.42,17.64,732.972,0.042852,0.790073,0.775029,-3.032066,36.94027,169.079
92837.91,17.61,731.8571,0.107793,1.20853,0.262334,-3.38428,49.72909,171.6962
92825.64,17.6,732.9536,-0.106074,1.076206,0.158818,-5.809845,63.29222,174.0736
92823.05,17.6,733.1835,0.00916,1.057651,0.024541,-4.441022,68.76745,175.1463
92825.59,17.63,732.9589,0.035527,1.063999,0.041631,-5.466763,70.05376,175.6905
92827.19,17.62,732.8162,-0.020137,1.032749,0.080205,-5.777592,69.61738,174.632
92824.75,17.54,733.0328,0.191777,0.918491,0.276982,-7.77344,63.62798,172.4586
92824.75,17.54,733.0328,-0.057734,0.843296,0.531377,-10.99367,46.96668,166.7233
92835.26,17.51,732.0922,0.032598,0.904331,0.740361,-11.5929,45.57808,171.4881
92840.92,17.48,731.5875,-0.012324,0.918003,0.501104,-8.045543,51.96329,166.2327
92826.17,17.49,732.906,0.128301,1.088413,0.604619,-6.881677,52.95091,167.8192
92826.17,17.49,732.906,-0.040156,0.800815,0.526494,-2.587814,54.43875,169.9804
92826.44,17.51,732.8822,0.058965,0.976597,0.360479,-2.874289,57.59674,174.8961
92823.03,17.53,733.1861,-0.040156,0.965366,0.494268,-3.053256,54.17435,174.7236
92832.34,17.51,732.3538,-0.07043,0.810093,0.577764,-1.975827,53.60407,172.7009
92832.34,17.51,732.3538,-0.061152,0.988315,0.541143,-0.194524,56.05337,172.8384
92834.52,17.47,732.1609,-0.116816,0.829136,0.537725,3.724223,54.72089,173.4517
92834.77,17.43,732.1371,-0.099238,0.761753,0.738408,2.205654,49.07759,176.0618
92840.48,17.38,731.6271,-0.096797,0.66312,0.610967,2.366507,44.31061,187.5159
92840.48,17.38,731.6271,0.156133,0.793491,0.745244,-3.427574,43.22706,200.6502
92840.48,17.38,731.6271,-0.038691,0.675327,0.58167,-3.888747,39.31974,211.7001
92827.97,17.37,732.7448,0.202031,0.488804,1.00208,-7.41624,28.11439,209.9914
92828.34,17.34,732.7105,0.01502,0.508823,0.887334,-6.278403,30.61974,207.0946
92833.65,17.31,732.2375,0.021855,0.482456,0.858037,-3.132512,30.42563,205.3763
92831.35,17.32,732.4436,0.032109,0.480015,0.909307,-2.756665,30.24969,205.0985
92826.07,17.31,732.9139,-0.000117,0.500522,0.900029,-2.526466,28.8421,206.7122
92828.79,17.29,732.6708,0.030645,0.49564,0.912236,-1.772374,28.24764,208.8634
92829.94,17.27,732.5704,0.02332,0.50687,0.864873,-2.768226,29.38941,210.3353
92829.63,17.24,732.5969,0.036504,0.469272,0.881475,-2.735727,28.04021,211.1972
92827.64,17.21,732.7739,0.019902,0.445347,0.884893,-1.921194,26.05736,214.7108
92831.21,17.2,732.4542,0.036992,0.46146,0.888311,-1.524034,26.29903,220.6899
92828.13,17.19,732.7316,0.036504,0.525913,0.932744,-1.038925,26.85399,223.2383
92828.7,17.15,732.6814,-0.058223,0.440952,0.90833,3.457852,23.57383,222.1361
92825.82,17.09,732.9377,-0.059687,0.372593,0.931279,3.980533,20.11773,216.4885
92820.23,17.06,733.4371,0.001348,0.41019,0.918096,4.328553,19.77702,206.5605
92815.99,17.03,733.8149,-0.035762,0.29105,0.985479,6.382846,15.40835,186.0651
92821.45,17.02,733.3261,-0.143184,0.229038,1.066045,8.167005,13.71227,165.229
92817.78,17.01,733.6564,-0.023066,0.153843,0.89124,15.89596,7.013124,147.3882
92812.68,17.02,734.1135,-0.09875,0.017612,0.951787,20.18151,6.405333,137.7318
92818.82,17.05,733.564,-0.339473,-0.036099,0.933232,19.07194,5.289088,133.9578
92822.7,17.07,733.2151,-0.218379,0.056675,1.064092,18.41646,6.795722,134.1786
92818.51,17.08,733.5903,-0.346309,0.056187,0.946904,18.89179,8.087623,135.5437
92820.64,17.1,733.4001,-0.372187,0.143101,0.933721,19.35525,9.072749,135.2711
92819.11,17.11,733.5375,-0.102168,0.158237,0.973271,18.40646,9.607361,134.3273
92817.87,17.11,733.6485,-0.215449,0.326694,0.965459,14.1338,12.38698,134.0598
92812.63,17.11,734.1161,-0.142207,0.278354,0.954717,11.55393,13.64508,134.3454
92815.9,17.11,733.8229,-0.185176,0.304233,0.932744,10.07918,16.7755,134.0709
92809.78,17.13,734.3698,-0.250117,0.218296,0.919072,9.9628,15.35998,135.9111
92809.38,17.12,734.4068,-0.134883,0.278843,0.985479,9.154566,13.69152,137.7614
92810.75,17.09,734.2853,-0.124141,0.154331,0.977178,7.587042,10.19325,139.0836
92811,17.08,734.2615,-0.111445,0.147495,0.971807,6.328397,8.624043,139.744
92805.83,17.09,734.7239,-0.125117,0.20853,1.002568,6.115062,9.024817,140.6733
92797.2,17.08,735.4954,-0.107539,0.150913,0.997197,4.444755,8.611716,141.791
92797.2,17.08,735.4954,-0.104609,0.170444,1.004033,5.458998,9.025098,142.7731
92796.84,17.08,735.5272,-0.102168,0.124546,0.993291,4.603144,7.929596,144.2285
92804.84,17.09,734.8111,-0.091914,0.183628,0.987432,3.616192,8.576728,145.7102
92806.71,17.08,734.6447,-0.074336,0.197788,0.998662,4.157763,10.43377,146.4435
92812.06,17.09,734.1664,-0.12707,0.184116,0.955205,6.651834,10.72818,147.5367
92806.78,17.09,734.6393,-0.099238,0.155308,0.971807,5.687721,9.206653,148.1082
92792.2,17.07,735.942,-0.068965,0.168003,1.004033,4.990969,8.075328,149.2591
92792.2,17.07,735.942,-0.006953,0.082065,1.010381,2.103187,5.515699,150.5638
92797.5,17.08,735.469,-0.079219,0.113804,0.998174,-0.907157,4.363461,157.1971
92792.14,17.1,735.9473,0.09998,0.152378,0.963506,-4.534656,7.156771,159.3725
92785.09,17.11,736.5761,0.121465,0.212925,0.982061,-7.864364,10.04785,159.7694
92788.81,17.13,736.2458,0.126836,0.19144,0.99085,-7.388295,10.72694,161.588
92788.91,17.14,736.2379,0.104375,0.254429,1.019658,-5.54211,12.12222,162.4262
92794.16,17.14,735.7676,0.052129,0.157261,0.949834,-1.561666,8.485421,166.7003
92790.18,17.13,736.1243,-0.075313,0.170444,0.984014,3.183647,6.242643,171.0513
92792.7,17.12,735.897,-0.133418,0.099644,0.946416,6.976722,7.371841,173.3783
92788.56,17.1,736.267,-0.232051,0.247593,0.842412,6.594162,10.34643,172.6349
92782.83,17.08,736.7796,0.034063,0.24271,1.069463,3.532869,12.20414,170.529
92780.34,17.1,737.0015,0.182988,0.340366,0.967412,-0.244461,13.64352,170.3903
92781.36,17.1,736.9117,0.020391,0.414097,0.937139,-1.481033,17.16167,172.077
92778.47,17.11,737.1707,0.048223,0.248569,0.961553,-2.900937,16.97422,174.1201
92778.32,17.13,737.1838,0.035039,0.251499,0.941533,-1.807408,16.12816,175.3126
92776.78,17.13,737.3212,-0.014766,0.279331,1.009404,0.166019,16.15013,176.9142
92782.42,17.14,736.8166,-0.01623,0.104038,0.931768,1.570987,4.098514,178.7515
92785.98,17.14,736.4969,-0.003047,-0.030728,1.006963,-1.545108,1.496033,183.5277
92787.2,17.13,736.3885,-0.071406,-0.043423,0.877568,-1.815337,-3.89135,188.36
92793.31,17.12,735.8442,0.028691,-0.276821,1.115361,-3.67573,-2.665713,192.481
92795.58,17.11,735.6407,0.031133,-0.020474,1.031865,-5.841266,2.97872,193.7883
92798.2,17.11,735.4056,0.027227,-0.22311,1.013799,-1.107199,-1.772446,198.1143
92799.26,17.12,735.3131,-0.015742,-0.061489,0.892217,-0.205564,-7.664511,208.388
92811.71,17.12,734.1981,0.016484,-0.108364,1.056279,2.370543,2.256655,215.5091
92807.42,17.12,734.5812,0.211309,0.091831,1.052861,2.121268,6.458814,223.6461
92811.2,17.14,734.2457,0.047246,0.205601,0.904424,1.420681,7.458394,226.1635
92813.36,17.16,734.0501,0.00916,0.296909,0.976201,-0.658456,10.68156,229.5663
92808.84,17.16,734.4544,-0.042598,0.309604,1.047979,-2.062866,9.737969,231.545
92813.43,17.16,734.0448,-0.017207,0.145054,0.971318,-1.336638,10.09717,234.1554
92813.61,17.18,734.029,0.014531,0.306187,1.013311,0.990325,9.244637,235.6582
92807.97,17.17,734.5336,-0.100703,0.161167,0.990361,3.138427,3.873045,236.4337
92803.99,17.17,734.8877,-0.016719,0.136265,1.098271,2.893958,5.004394,236.5606
92809.17,17.16,734.4253,0.027715,0.078647,1.023076,4.223049,2.740115,236.1581
92808.26,17.17,734.5072,0.007695,0.036167,0.908818,0.146108,5.465328,238.9062
92811.09,17.19,734.2535,-0.14416,0.132847,0.887822,-5.94792,11.7152,252.3462
92806.55,17.16,734.6605,0.485234,0.279331,1.253545,-9.621716,4.783264,269.3928
92808.58,17.07,734.4781,0.19959,0.186069,1.0221,-6.620547,8.128154,268.3953
92819.7,17.03,733.4847,0.208867,0.312534,0.779424,-9.868703,5.956911,258.6038
92812.28,17.02,734.1479,0.17957,0.354526,0.873662,-8.447608,5.978535,259.536
92807.48,17,734.5759,0.149297,0.175815,1.017705,-7.157827,4.807214,261.0726
92811.02,16.99,734.2589,0.098027,0.218296,0.958623,-6.307648,4.553447,264.6432
92808.92,16.97,734.4465,0.048711,0.137729,1.032354,-3.439023,3.089608,267.3606
92807.41,16.95,734.5839,0.173711,0.015659,1.01917,-5.1203,5.962957,266.0543
92810.88,16.94,734.272,0.179082,0.331577,1.000127,-7.595518,1.681068,268.6738
92804.73,16.92,734.8217,-0.047969,0.035679,0.915654,-4.17008,1.48561,273.6201
92810.97,16.89,734.2642,-0.034785,0.000522,0.879033,0.111696,2.335026,278.9467
92808.56,16.84,734.4808,-0.009883,0.277378,1.041631,-0.712385,7.715769,282.3269
92815.78,16.81,733.8334,0.21668,0.013218,0.88001,-1.998914,4.8362,283.9686
92810.69,16.79,734.2906,-0.021602,0.120151,0.988408,-3.052204,6.961326,279.7525
92816.64,16.76,733.7568,0.08582,-0.000454,1.093877,-0.438613,6.001389,272.1132
92810.33,16.72,734.3223,0.136113,0.107456,0.963506,-3.460027,5.755405,269.836
92809.47,16.7,734.3989,-0.072871,0.145054,0.993291,-2.607695,4.905213,273.1718
92810.08,16.7,734.3434,0.149785,-0.033657,0.935674,-3.770544,5.351246,279.7126
92810.28,16.65,734.3276,-0.042598,0.267612,1.017217,-3.02163,9.216352,286.0207
92818.4,16.65,733.601,-0.012324,0.232944,1.099736,-1.965887,9.44241,288.1616
92817.13,16.65,733.7145,0.174688,0.323276,0.936162,-1.375411,10.11047,284.9893
92820.87,16.66,733.379,-0.024043,0.132847,0.896611,0.642953,5.006209,288.3323
92819.5,16.63,733.5032,0.031133,0.061069,0.913701,-0.064802,4.351386,286.8869
92820.61,16.61,733.4028,0.038945,0.198276,0.975225,-1.029107,11.69108,285.7933
92828.62,16.59,732.6867,-0.004023,0.188511,0.932256,-3.082778,13.1656,288.6188
92829.82,16.58,732.581,0.020391,0.261753,0.982549,-3.091943,15.78764,290.5075
92837.52,16.53,731.8914,-0.001582,0.349644,0.999639,-2.551705,16.51114,290.4276
92831.92,16.5,732.3907,0.012578,0.357456,0.968877,0.236822,18.93826,288.0998
92833.68,16.48,732.2349,0.056035,0.422886,0.892705,0.2524,23.6705,284.3088
92828.41,16.47,732.7052,-0.034297,0.243687,0.770635,-0.167174,19.3858,287.1926
92835.35,16.48,732.0843,0.025273,0.362827,1.151494,-2.148384,18.1997,290.9348
92833.85,16.49,732.219,0.064824,0.346714,0.92835,-4.703672,16.71601,294.9127
92833.85,16.49,732.219,0.106328,0.336948,0.962529,-7.761765,18.14219,294.7595
92836.41,16.49,731.9918,0.090703,0.169956,0.931279,-6.230478,16.03557,293.4337
92832.63,16.47,732.33,0.112187,0.233921,0.992803,-6.999994,13.96316,292.3366
92818.82,16.43,733.564,0.116582,0.234897,0.963506,-6.926435,12.65591,292.9242
92818.82,16.43,733.564,0.115117,0.275425,0.968389,-6.134179,14.88433,292.309
92823.77,16.44,733.1201,0.048711,0.270054,0.971318,-6.012278,16.74728,293.4527
92818.63,16.45,733.5798,-0.128535,0.098667,0.974736,-1.700984,11.48569,291.1288
92817.72,16.45,733.6617,-0.060176,0.096226,1.042607,0.647032,6.840929,291.8218
92816.91,16.47,733.733,-0.064082,0.167515,0.994268,0.90141,9.130332,294.5081
92820.59,16.48,733.4054,-0.005,0.150425,0.993779,-0.283731,11.19634,295.0135
92824.52,16.48,733.054,-0.049922,0.182651,0.999639,2.090436,12.10777,296.6582
92824.03,16.49,733.0963,-0.057246,0.22269,0.945928,4.336884,12.00081,296.4644
92825.02,16.5,733.009,-0.107539,0.187046,0.999639,6.193894,9.926353,295.8184
92821.5,16.47,733.3235,-0.065547,0.225132,0.984502,4.792234,10.56991,296.0073
92819.78,16.46,733.4767,-0.075801,0.19144,0.998174,4.941193,8.6457,295.8229
92820.08,16.46,733.4503,-0.108516,0.139194,0.975713,5.806826,8.625484,296.1946
92816.7,16.45,733.7515,-0.093379,0.11478,0.965947,5.275214,6.793838,295.5436
92816.41,16.45,733.778,-0.051387,0.144077,0.962529,4.89051,7.277298,295.6432
92814.99,16.44,733.9048,-0.075801,0.212925,0.993291,3.602443,10.41707,297.2892
92817.36,16.45,733.6934,-0.059199,0.236362,0.968877,2.692473,12.30845,296.8619
92810.73,16.44,734.2853,0.022832,0.337437,0.904912,0.904766,16.98734,289.193
92817.51,16.43,733.6802,-0.089473,0.099155,1.051396,2.113385,11.3658,278.6358
92822.01,16.46,733.2786,0.010137,0.25394,1.026006,1.113989,12.02652,278.1725
92822.37,16.46,733.2469,0.014531,0.175815,0.963018,-0.164339,8.803039,283.137
92828.05,16.47,732.7396,-0.013789,0.092319,0.961553,-0.017111,6.908351,286.5738
92826.19,16.48,732.9034,0.051152,0.119663,1.004521,-2.030132,7.002804,289.0293
92826,16.49,732.9219,0.017949,0.179233,0.996221,-3.455271,8.279133,290.6771
92823.77,16.5,733.1201,0.045781,0.122593,1.006963,-3.475818,7.738605,292.1265
92823.88,16.51,733.1094,0.050176,0.091831,1.012334,-2.549942,6.735583,293.2238
92824.31,16.52,733.0724,0.02625,0.17728,1.004033,-2.733016,7.888466,296.9554
92824.31,16.52,733.0724,0.072637,0.169468,0.982549,-2.345544,8.312098,299.0039
92822.56,16.51,733.2284,0.028203,0.209019,0.988408,-2.770918,11.07473,302.9301
92815.95,16.51,733.8203,0.054082,0.238804,1.039678,-3.189181,12.05236,306.2253
92816.57,16.5,733.7648,0.028203,0.281284,0.962041,-2.001731,12.58763,307.5779
92815.85,16.5,733.8282,0.000859,0.243198,0.981084,-0.794078,12.98705,307.5115
92818.03,16.48,733.6326,-0.015254,0.245151,0.9679,0.464426,12.00405,308.1712
92820.8,16.47,733.3869,-0.093379,0.188022,0.946904,4.309159,10.87447,308.2971
92816.11,16.46,733.8044,-0.096797,0.244175,0.98499,4.254733,10.89473,308.9674
92817.17,16.46,733.7119,-0.076289,0.159214,0.997197,4.66916,10.25638,310.4363
92820.39,16.49,733.4213,-0.14709,0.216343,0.976689,4.444571,11.54012,312.1831
92816.62,16.47,733.7595,-0.079707,0.10355,0.997197,5.144445,10.85387,315.1451
92811.28,16.43,734.2377,-0.004512,0.278843,0.98792,3.342519,14.35324,320.8054
92814.94,16.41,733.9101,-0.046992,0.223179,0.971807,3.850927,12.88065,326.8966
92818.13,16.4,733.6247,-0.114863,0.30521,0.969854,1.443744,14.49866,335.863
92821.13,16.37,733.3578,-0.116816,0.253452,1.067021,1.310173,14.4169,341.2283
92824.12,16.34,733.0909,-0.086055,0.311558,0.989873,3.92602,16.27933,346.2053
92827.98,16.3,732.7448,-0.116816,0.287144,1.032842,6.430178,15.48723,349.9545
92830.26,16.27,732.5414,-0.198848,0.132358,0.942021,5.483633,13.42238,351.8524
92832.78,16.23,732.3141,-0.159297,0.238315,0.91126,7.366244,12.19379,351.2681
92835.69,16.2,732.0552,-0.161738,0.16605,0.983525,8.138561,9.383493,354.3259
92833.05,16.16,732.2903,-0.217891,0.276401,0.963018,8.587327,12.45082,356.4289
92831.89,16.15,732.3934,-0.228633,0.202671,0.974248,9.752965,10.64622,358.4952
92828.41,16.13,732.7052,-0.192012,0.145542,0.989873,11.12716,9.624347,0.005203
92830.19,16.11,732.5466,-0.560176,0.426792,1.121221,9.552257,16.46669,359.4093
92831.17,16.08,732.4595,-0.069941,0.046421,1.011357,7.80662,8.950611,1.471161
92834.84,16.05,732.1318,-0.179316,0.162144,1.018193,10.28427,5.69745,2.2836
92829.95,16.02,732.5678,-0.042598,0.165562,0.99915,7.122631,2.795264,6.714691
92825.63,16.02,732.9536,0.042363,0.30228,1.003057,1.601693,6.885626,9.531433
92822.61,16.01,733.2231,-0.043574,0.185581,0.985967,1.552134,9.699735,9.751205
92830.75,16.01,732.4965,-0.094355,0.195835,0.974248,2.62346,10.21227,11.12473
92829.84,15.98,732.5784,-0.06457,0.248569,0.959111,2.501521,11.91785,13.68617
92828.33,15.96,732.7131,-0.025508,0.232456,1.001592,1.862754,10.73306,15.04803
92831.93,15.93,732.3907,-0.030391,0.274448,0.975713,3.068779,11.67025,16.11475
92831.93,15.93,732.3907,-0.041133,0.279331,0.957158,2.090048,14.90402,17.02687
92835.6,15.91,732.0631,-0.091426,0.231479,1.000615,2.151088,11.48956,19.48642
92830.22,15.89,732.544,-0.082148,0.166538,0.980596,4.019459,11.73667,20.70163
92828.95,15.86,732.6577,-0.000117,0.110386,0.961064,3.857882,8.849002,21.73169
92828.95,15.86,732.6577,-0.037227,0.144077,1.002568,3.101148,8.331844,23.69879
92825,15.83,733.009,-0.066035,0.169956,0.998662,3.291963,9.170096,27.50267
92828.97,15.8,732.655,-0.073848,0.264683,0.970342,3.200582,11.72921,28.9399
92826.89,15.79,732.8426,-0.07873,0.193882,0.996709,2.513763,11.20504,28.67188
92825.55,15.79,732.9615,-0.07873,0.221714,0.957646,1.622597,11.53444,31.25003
92825.33,15.8,732.98,-0.07873,0.204136,0.997686,2.870225,11.55457,32.63107
92826.45,15.81,732.8796,-0.079707,0.266147,0.983525,1.92586,12.24846,34.14629
92826.05,15.81,732.9166,-0.075313,0.214878,1.005986,1.282802,11.48574,35.63486
92826.05,15.81,732.9166,-0.059199,0.178257,1.012822,2.679077,10.25908,36.67549
92835.36,15.82,732.0843,-0.015254,0.3223,0.952275,1.722608,15.39584,35.72702
92829.8,15.82,732.581,-0.010859,0.272983,0.987432,1.289572,13.19031,35.19237
92829.37,15.81,732.6207,-0.083613,0.236362,0.962529,4.468329,12.59576,32.67555
92828.38,15.81,732.7078,-0.086055,0.118198,0.972295,5.207649,9.465318,30.10655
92827.36,15.81,732.8003,-0.069941,0.213901,1.026494,4.384839,8.637636,31.55307
92805.92,15.79,734.7159,-0.196406,0.118687,0.914678,5.808844,8.992146,33.96896
92837.76,15.77,731.8702,-0.049434,0.159702,1.01624,4.012278,8.444979,36.16487
92829,15.74,732.6523,-0.116328,0.255894,0.926885,5.103391,8.933677,37.59407
92826.42,15.72,732.8822,0.023809,0.125034,1.046514,1.34978,8.030821,43.08261
92824.2,15.69,733.0804,-0.03332,0.202183,0.969365,-0.263797,10.31982,46.19907
92824.8,15.66,733.0275,-0.047969,0.189487,0.962041,1.598885,10.38195,49.56216
92826.2,15.67,732.9034,0.034063,0.149448,0.996709,3.036449,2.950871,53.66881
92809.54,15.64,734.3936,-0.08459,0.033237,1.00208,4.967389,1.87391,54.64021
92807.17,15.63,734.605,-0.090938,0.053745,0.990361,5.031562,2.71906,56.8021
92809.62,15.61,734.3857,-0.117793,0.039097,1.018682,6.925485,2.018055,61.36049
92810.38,15.59,734.317,-0.165156,-0.045376,0.984502,8.891724,0.008455,61.70995
92810.38,15.59,734.317,-0.176387,-0.044399,1.003057,8.306141,-1.23302,61.68504
92806.89,15.57,734.6288,-0.161738,0.004917,0.989873,9.022624,0.320158,62.4873
92808.64,15.55,734.4729,-0.142207,-0.014614,0.978154,8.635024,1.186683,62.62453
92808.09,15.53,734.5204,-0.13293,0.004429,0.989385,8.322744,2.58563,64.54385
92808.09,15.53,734.5204,-0.166621,0.088413,0.997197,8.499653,1.568507,65.66064
92812.02,15.53,734.1716,-0.163691,0.038608,0.979131,9.578588,2.346267,68.35849
92816.45,15.55,733.7753,-0.218379,-0.009243,1.019658,10.57253,1.785739,66.88002
92813.43,15.54,734.0448,-0.424434,0.475132,1.170049,13.65393,-0.597175,73.09912
92807.69,15.52,734.5574,-0.227656,-0.022915,0.93958,13.15341,-0.856817,72.53147
92808.28,15.52,734.5046,-0.098262,0.051792,1.038701,7.884948,1.636285,72.95763
92811.4,15.53,734.2272,-0.034297,0.031772,0.879033,10.46254,-1.067632,71.9427
92811.4,15.53,734.2272,-0.208613,-0.261685,0.909795,8.248084,-4.621418,69.50522
92808.3,15.55,734.502,-0.075801,-0.071255,1.01624,4.733441,-4.36176,67.91936
92810.63,15.58,734.2958,-0.104609,0.077671,1.049443,3.802467,-5.132221,65.92836
92809.77,15.6,734.3725,-0.103633,-0.334927,0.999639,5.191266,-10.20847,66.47198
92808.27,15.61,734.5072,-0.094355,-0.238735,0.912236,4.264512,-13.17033,67.83904
92808.63,15.61,734.4755,-0.001094,-0.241177,1.014775,-0.191215,-14.57094,70.61117
92809.14,15.63,734.428,0.052617,-0.144009,0.943975,-1.118069,-13.18256,74.82953
92806.92,15.64,734.6261,-0.063594,-0.22604,1.046025,-0.263149,-8.747088,74.41435
92809.91,15.64,734.3593,0.094121,-0.027798,1.066533,6.403574,5.57889,70.11391
92829.63,15.65,732.5969,-0.511348,0.186069,0.807744,19.24553,11.0966,64.04334
92832.2,15.68,732.367,-0.177852,0.202671,0.937139,14.74123,7.150457,66.74177
92834.86,15.68,732.1292,-0.307734,0.097202,0.991826,12.02059,8.096677,66.40707
92832.53,15.68,732.3379,-0.295039,0.110386,0.973271,14.76653,8.878528,67.52586
92830.03,15.66,732.5599,-0.265254,0.220249,0.931279,16.11072,12.30577,71.06767
92834.16,15.68,732.1926,-0.271602,0.28812,0.929326,17.44474,14.83173,73.90051
92830.58,15.68,732.5123,-0.330684,0.252476,0.92835,18.77844,16.66611,76.11446
92824.69,15.68,733.0381,-0.275996,0.330601,0.903936,16.06542,20.39566,85.25715
92825.52,15.69,732.9641,-0.137812,0.339878,0.941045,8.168978,20.66819,101.988
92816.4,15.7,733.778,-0.205684,0.405308,0.929814,7.731399,21.25484,109.0337
92808.05,15.71,734.5257,-0.39709,0.200718,0.945439,11.83156,18.28162,111.9734
92814.22,15.74,733.9735,-0.271602,0.243198,0.902471,14.07522,16.74363,118.4823
92817.59,15.75,733.6722,-0.499629,-0.064907,0.87415,20.61848,14.39011,122.6878
92823.23,15.75,733.1702,-0.487422,0.14603,0.897588,27.21822,12.92043,126.423
92824.83,15.75,733.0249,-0.528437,0.196812,0.814092,30.60479,13.92053,128.6786
92824.17,15.75,733.0857,-0.562617,0.186069,0.820928,33.25358,12.98114,129.897
92824.53,15.75,733.0513,-0.611445,0.188999,0.821904,33.44165,11.81322,130.6051
92823.88,15.75,733.1094,-0.552852,0.149937,0.847295,33.91623,12.1003,132.059
92823.16,15.75,733.1755,-0.557246,0.132847,0.758916,36.87472,11.63331,136.2777
92817.34,15.75,733.6934,-0.596309,0.143589,0.773076,37.5008,10.44997,139.0313
92819.45,15.77,733.5058,-0.626094,0.084995,0.808232,36.90133,7.222149,137.1166
92809.59,15.8,734.3883,-0.619258,-0.134243,0.694463,37.07074,9.722971,137.9082
92809.59,15.8,734.3883,-0.604121,0.092319,0.774541,39.09618,10.05331,140.4723
92814.39,15.82,733.9576,-0.670527,0.105015,0.747197,39.90898,9.755204,141.4691
92810.61,15.83,734.2958,-0.670527,0.11771,0.742314,40.09376,10.79323,142.6609
92810.61,15.83,734.2958,-0.630488,0.159702,0.748662,39.61899,12.22431,145.4518
92812.06,15.85,734.1664,-0.680293,0.141636,0.711553,41.87871,12.59181,147.1303
92813.84,15.86,734.0078,-0.656855,0.115757,0.714482,42.66595,11.66651,147.6321
92810.42,15.88,734.3143,-0.712031,0.107944,0.711553,44.30275,9.846253,147.611
92810.42,15.88,734.3143,-0.683711,0.110386,0.700322,43.76002,9.616894,147.7905
92809.22,15.89,734.4227,-0.693477,0.129917,0.718389,43.83778,10.11676,149.2208
92808.53,15.91,734.4835,-0.711055,0.110386,0.691045,45.15156,9.040151,146.7399
92810.2,15.92,734.3328,-0.736445,0.024448,0.66126,47.32366,6.913872,145.1115
92808.02,15.93,734.5284,-0.716426,0.139194,0.624639,46.60016,9.236853,150.369
92813.06,15.94,734.0765,-0.728145,0.104526,0.67249,45.90398,8.726916,148.933
92807.97,15.96,734.5336,-0.690059,0.101108,0.724248,45.74588,9.805184,151.1466
92807.79,15.97,734.5495,-0.767207,0.096226,0.626104,46.25337,8.98835,151.4468
92810.45,15.97,734.3117,-0.641719,0.095249,0.663701,43.09924,7.407121,152.4437
92807.17,15.97,734.605,-0.670527,-0.007778,0.765752,39.54525,-0.011187,148.4145
92803.42,15.99,734.9379,-0.663203,-0.116177,0.805791,37.62247,-5.888556,144.9951
92806.33,15.99,734.679,-0.55334,-0.162075,0.882939,31.16957,-4.985275,141.3685
92805.17,16,734.782,-0.376094,0.166538,0.948369,22.67416,1.733474,139.5433
92809.2,16.01,734.4227,-0.163203,0.229038,0.903936,16.75235,5.590725,141.5731
92809.02,16.02,734.4385,-0.239375,-0.011196,1.079717,15.40544,6.532044,140.6517
92811.44,16.04,734.2219,-0.34875,0.398472,1.044561,13.60023,16.33019,137.6065
92814.2,16.05,733.9761,-0.222773,0.133335,1.005498,13.5887,8.825777,147.9642
92811.98,16.06,734.1743,-0.283809,0.281284,0.865361,21.21648,10.2901,151.9043
92805.59,16.07,734.7451,-0.374141,0.299839,0.89417,20.31819,12.5309,153.3941
92807.66,16.08,734.5601,-0.366816,0.248081,0.865361,20.87788,14.61286,154.8198
92811.14,16.07,734.2483,-0.485957,0.25394,0.884893,21.54,15.22075,156.4375
92813.4,16.07,734.0475,-0.407832,0.18021,0.895146,24.0349,13.6552,156.6519
92809.58,16.08,734.3883,-0.403437,0.206089,0.911748,23.25567,12.75397,157.1762
92806.09,16.09,734.7001,-0.403926,0.190464,0.906377,23.81117,11.8021,157.4763
92806.41,16.09,734.671,-0.396113,0.201694,0.875127,24.10302,12.75962,158.6231
92809.58,16.08,734.3883,-0.421504,0.186069,0.902471,25.03412,11.76922,159.4035
92803.44,16.09,734.9379,-0.438105,0.168979,0.875127,25.67994,11.11052,160.1216
92803.44,16.09,734.9379,-0.431758,0.179722,0.906865,24.94068,11.57422,161.2208
92804.48,16.09,734.8455,-0.410273,0.180698,0.89417,23.98812,11.56132,162.3084
92808.59,16.11,734.4781,-0.432246,0.181675,0.859502,25.68758,10.80388,161.388
92807.58,16.11,734.568,-0.442012,0.160679,0.884893,26.29235,10.07079,164.8667
92807.58,16.11,734.568,-0.478145,0.157261,0.867314,27.12295,10.55702,162.5445
92806.11,16.12,734.7001,-0.483516,-0.474087,0.805791,28.14964,11.51301,166.3362
92803.6,16.13,734.9221,-0.431758,0.184116,0.831182,27.37347,12.99517,165.9888
92807.2,16.13,734.6024,-0.41125,0.24564,0.848271,28.42245,11.18209,167.1455
92807.02,16.15,734.6182,-0.486934,0.095737,0.859502,28.4307,8.673074,168.3122
92808.44,16.16,734.4914,-0.49377,0.161655,0.84876,29.94401,10.87241,169.4021
92805.86,16.16,734.7213,-0.55627,0.162632,0.855596,31.05794,11.0086,170.8848
92802.41,16.14,735.0304,-0.673457,0.033726,0.775029,30.12882,11.32309,169.9182
92805.1,16.12,734.79,-0.506465,0.206089,0.774541,26.95904,11.04593,171.879
92806.55,16.13,734.6578,-0.441523,0.14896,0.855596,26.07439,10.20639,174.2619
92805.5,16.13,734.7529,-0.400508,0.062046,0.880986,24.29397,9.990988,174.2094
92806.27,16.14,734.6843,-0.383906,0.063999,0.878545,22.2496,12.2754,170.1437
92804.27,16.13,734.864,-0.42834,0.252964,0.962041,20.68704,9.14965,165.2257
92812.66,16.15,734.1135,-0.270625,0.20853,1.044072,18.61341,8.218443,171.5871
92806.58,16.17,734.6578,-0.343867,0.278354,0.761846,15.19147,11.10665,172.5854
92809.16,16.19,734.428,-0.231562,0.296421,0.995732,6.132373,10.49135,170.4977
92806.57,16.2,734.6578,-0.085566,0.313999,0.895146,4.110485,14.9505,167.2346
92810.61,16.21,734.2958,-0.152949,0.122593,0.932256,4.851972,14.31474,160.9282
92822.09,16.21,733.2706,-0.10998,-0.000942,0.963506,3.909935,8.338183,157.0022
92823.55,16.23,733.1412,-0.159785,-0.096157,0.952275,4.917924,6.201973,152.1586
92821.58,16.23,733.3156,-0.118281,0.041538,1.106572,11.95407,-2.246454,149.5516
92820.27,16.23,733.4318,0.195684,0.032749,1.044072,12.83849,-0.126378,139.3444
92831.3,16.22,732.4462,-0.232051,-0.189907,1.002568,17.34063,-9.310411,133.7684
92824.16,16.22,733.0857,-0.232051,-0.45895,1.213018,15.50231,-9.566235,138.2649
92833.47,16.24,732.2534,-0.187617,-0.12936,0.985967,12.71696,-8.662524,141.5211
92834.78,16.24,732.1371,-0.021602,-0.151333,0.957646,7.432631,-9.220592,138.9667
92849.54,16.24,730.8186,-0.106074,-0.020474,0.889287,7.681023,-1.2984,136.1548
92849.54,16.24,730.8186,-0.216914,0.514194,1.337529,6.895273,0.949111,134.4366
92849.9,16.24,730.7842,-0.089473,0.030796,0.984014,5.430412,1.811874,134.9039
92843.46,16.25,731.3603,-0.136348,0.048374,0.992803,6.469879,2.427022,135.7008
92843.39,16.28,731.3655,0.198125,-0.119106,0.84583,5.955182,6.226182,139.4823
92843.39,16.28,731.3655,-0.098262,0.095737,0.984014,5.826221,5.901686,140.6599
92842.55,16.29,731.4422,-0.139277,0.130405,0.988408,7.342608,6.837165,142.0007
92842.78,16.31,731.421,-0.14709,0.127476,0.984014,8.11504,6.973772,143.2183
92842.78,16.31,731.421,-0.142207,0.121616,0.981084,7.980091,6.799849,144.3817
92839.27,16.29,731.7355,-0.145625,0.118687,0.984502,7.860059,7.175812,145.6473
92838.2,16.31,731.8306,-0.14123,0.116245,0.981084,8.054756,7.189364,146.8639
92841.84,16.31,731.5056,-0.138789,0.116245,0.982549,7.744823,6.615416,147.9591
92840.02,16.33,731.6694,-0.145137,0.107944,0.979131,8.599907,6.241043,149.1214
92838.16,16.34,731.8333,-0.145625,0.122593,0.984014,8.687875,7.192106,150.487
92833.32,16.35,732.2666,-0.14123,0.122104,0.984014,8.333467,7.108348,151.7097
92839.47,16.34,731.717,-0.140742,0.124546,0.983525,8.117048,7.068397,152.8906
92836.23,16.34,732.0076,-0.140254,0.118687,0.985967,7.790703,6.86212,154.0502
92840.52,16.35,731.6245,-0.14416,0.121128,0.983525,8.484344,7.202371,155.3067
92837.94,16.35,731.8544,-0.098262,0.015659,1.038701,8.697668,7.036568,154.6922
92840.84,16.38,731.5955,-0.010371,0.019565,0.917607,6.836699,7.663499,156.3769
92855.75,16.39,730.2637,-0.19543,-0.019497,0.957158,11.37358,-6.636995,142.347
92860.11,16.41,729.8727,0.072637,-0.169399,1.004033,7.404145,-1.817871,151.8717
92839.88,16.41,731.68,-0.227656,0.087925,0.988896,8.913068,5.019134,159.8602
92839.59,16.41,731.7064,-0.135859,0.04105,0.904912,-0.149251,11.75107,170.7797
92832.61,16.41,732.33,-0.001094,-0.203091,0.898076,-10.3622,13.67213,179.429
92821.05,16.39,733.3631,0.223027,0.298374,0.926396,-10.4071,14.95041,187.5872
92820.18,16.37,733.4424,0.212773,0.754429,0.832646,-6.667902,21.72843,190.8589
92812.38,16.35,734.14,-0.109004,0.355991,0.833135,-5.806491,12.96749,199.6947
92822.88,16.35,733.1993,-0.092891,0.470737,0.87708,-6.712093,23.76635,178.3524
92820.63,16.35,733.4028,0.002813,0.338413,0.890752,-4.506203,16.05155,181.718
92821.5,16.34,733.3235,0.07166,0.281284,0.963506,1.082199,11.4709,183.5511
92813.58,16.34,734.0316,-0.21252,0.18021,0.935674,3.225954,9.314469,181.5064
92817.4,16.33,733.6907,-0.131465,0.141636,0.899541,2.474605,12.19641,185.7872
92814.09,16.32,733.9867,-0.111934,0.412632,0.961553,-1.102914,19.03114,190.1009
92810.56,16.33,734.3011,0.089238,0.412632,0.915654,-4.006918,12.107,186.6239
92808.08,16.34,734.5231,0.039434,0.181187,1.14124,-2.055037,7.669275,177.6265
92824.55,16.35,733.0513,-0.262324,0.10062,0.889775,2.373874,9.220513,175.2728
92824.22,16.38,733.0804,-0.099238,0.202671,1.020635,3.430708,8.057902,171.0247
92824.22,16.38,733.0804,-0.012812,0.033237,1.035283,3.305598,5.632872,168.243
92832.62,16.37,732.33,-0.129023,0.04105,0.952764,4.513483,6.004042,168.9985
92833.03,16.35,732.293,-0.075313,0.103062,0.98792,5.123804,4.347716,173.7585
92829.75,16.35,732.5863,-0.116328,0.142124,1.00208,4.293152,3.551209,185.5426
92819.72,16.36,733.482,-0.076777,0.209995,0.922979,2.70803,6.768599,199.4272
92819.72,16.36,733.482,0.018437,0.286167,1.036748,0.006134,7.714889,227.1396
92821.89,16.35,733.2891,-0.105586,0.188999,0.970342,1.33735,7.281559,241.6324
92813.23,16.37,734.0634,-0.121211,0.168979,0.975225,3.995451,7.353522,245.2544
92809.96,16.37,734.354,-0.030879,0.104038,0.92249,3.86136,5.913435,246.1259
92808.91,16.36,734.4491,-0.10998,0.10355,1.022588,3.808852,5.624607,249.0643
92809.06,16.34,734.4359,-0.08166,0.251011,0.99915,2.493602,8.259109,252.5068
92809.39,16.34,734.4042,-0.045039,0.210483,1.055303,2.31012,6.432799,256.3842
92812.98,16.34,734.0845,0.054082,0.407261,1.037725,3.737772,8.486938,263.4963
92816.2,16.34,733.7964,-0.024531,0.293003,0.985967,5.761274,10.83633,262.7222
92813.44,16.32,734.0448,-0.215449,0.071323,0.938115,6.57478,13.86827,259.7007
92812.73,16.29,734.1082,0.01209,0.229038,1.032354,7.60272,14.66608,255.0074
92814.84,16.27,733.918,0.078496,0.198765,1.006963,7.060443,12.93908,251.3501
92818.13,16.24,733.6247,-0.213008,0.233921,0.973271,7.822997,15.94096,247.5496
92823.8,16.22,733.1174,-0.14416,0.207065,0.944463,7.778328,14.83567,244.6555
92831.55,16.21,732.4251,-0.144648,0.374546,0.979619,3.240997,15.1174,245.4902
92820.89,16.22,733.3763,0.088262,0.058628,1.039189,6.586268,14.8727,250.0546
92831.61,16.21,732.4198,-0.046016,0.251011,1.035771,5.046205,14.51832,252.8526
92835.77,16.21,732.0472,-0.086543,0.247104,0.952275,5.285535,14.70442,255.1635
92828.53,16.2,732.6946,-0.062617,0.272007,0.962041,3.654877,15.76249,256.7448
92829.7,16.19,732.5916,-0.074824,0.27103,0.975225,4.237897,15.58574,258.0897
92833.3,16.19,732.2692,-0.055781,0.243687,0.962529,3.392941,15.42517,258.8858
92833.3,16.19,732.2692,-0.077754,0.238315,0.977666,3.541724,15.0031,260.0787
92829.19,16.17,732.6365,-0.03918,0.272495,0.979131,2.498027,15.394,261.1808
92836.43,16.17,731.9891,-0.055781,0.261753,0.982061,3.045162,14.40863,263.0087
92834.58,16.15,732.1556,-0.067988,0.300815,0.972783,3.621363,16.58721,263.4797
92834.58,16.15,732.1556,-0.068965,0.277866,0.955693,3.940774,16.01804,263.1252
92832.19,16.14,732.367,-0.117305,0.30521,0.945928,6.19192,17.9125,261.408
92832.08,16.13,732.3776,-0.160762,0.369663,0.921025,5.584057,19.555,256.0988
92834.7,16.13,732.145,-0.101191,0.478062,0.943486,1.989839,22.07096,244.8859
92818.4,16.14,733.601,-0.061641,0.22855,0.840947,4.210999,18.15355,235.8839
92812,16.15,734.1716,0.030645,0.332065,1.00208,1.435725,18.22112,237.2719
92819.81,16.15,733.4741,-0.0675,0.20853,0.929814,2.04126,14.01299,234.7191
92819.81,16.15,733.4741,-0.098262,0.345249,0.932256,1.457568,16.89689,225.7011
92833.81,16.14,732.2217,0.037969,0.218784,0.996709,0.467105,12.52486,212.55
92824.23,16.1,733.0778,0.119023,0.19437,0.929326,1.200837,12.48176,206.969
92821.57,16.1,733.3182,0.021367,0.158726,0.890752,-2.780547,10.99828,209.1684
92828.88,16.11,732.6629,0.111211,0.122104,0.980107,-7.815833,3.7012,219.9169
92860.03,16.12,729.8806,-0.014277,-0.10397,0.964971,-10.03283,-0.524628,233.7729
92844.16,16.1,731.2995,0.394414,0.196812,1.118779,-6.306916,-0.062998,244.2885
92827.14,16.07,732.8188,-0.41125,-0.287075,1.041631,2.135365,-7.665685,240.5978
92819,16.07,733.5481,-0.27209,-0.179165,0.9679,1.640945,-8.530988,243.9285
92818.78,16.08,733.5666,-0.169551,-0.207974,0.884893,4.389997,-14.49234,252.2264
92816.88,16.09,733.7357,-0.104121,-0.059048,0.967412,4.865511,-11.16642,251.5288
92814.27,16.09,733.9708,-0.103145,-0.117153,0.977178,4.842761,-6.850963,248.5949
92821.91,16.1,733.2865,-0.049922,-0.233364,0.90833,3.60399,-4.772322,247.6718
92827.9,16.11,732.7501,-0.160273,0.020054,0.986943,9.039214,-1.168137,244.7036
92830.19,16.11,732.5466,-0.319453,0.64603,1.348271,6.148654,2.243793,247.528
92832.48,16.11,732.3406,-0.154414,0.064976,1.015752,5.356592,3.397821,248.6903
92837.28,16.13,731.9125,-0.124141,0.026401,0.971807,6.862763,3.260346,248.0458
92834.5,16.15,732.1609,0.159063,0.079624,0.955693,9.1931,6.297501,247.8965
92834.32,16.16,732.1768,-0.138789,0.138706,0.990361,8.541321,6.460902,248.5107
92834.32,16.16,732.1768,-0.143184,0.116733,0.983525,8.51573,6.705953,249.7796
92831.19,16.17,732.4568,-0.148555,0.111851,0.988896,8.218925,6.476863,250.9389
92839.7,16.17,731.6959,-0.139766,0.119663,0.984502,8.38673,6.798674,252.1751
92848.93,16.18,730.8715,-0.143672,0.116245,0.981572,8.196329,6.726443,253.3753
92848.93,16.18,730.8715,-0.14416,0.113315,0.982549,8.011399,6.869394,254.6049
92845.04,16.18,731.2202,-0.146113,0.114292,0.985479,8.441936,7.046972,255.8242
92835.22,16.18,732.0975,-0.135859,0.117222,0.986943,7.3198,7.026278,257.0467
92824.86,16.19,733.0223,-0.140254,0.122104,0.985967,8.203453,6.850985,258.2289
92824.56,16.2,733.0487,-0.141719,0.118198,0.985479,8.053996,6.822516,259.4576
92819.01,16.2,733.5454,-0.136348,0.124058,0.984014,8.054001,6.97063,260.7174
92820.48,16.21,733.4133,-0.139277,0.119175,0.98792,7.881391,6.759175,261.8819
92820.48,16.21,733.4133,-0.143672,0.116245,0.983525,8.230706,7.266495,263.1553
92821.25,16.22,733.3446,-0.138301,0.114292,0.983525,8.351531,6.651306,264.304
92824.95,16.24,733.0143,-0.135371,0.113315,0.988896,7.635406,6.347603,265.4788
92821.03,16.24,733.3658,-0.135371,0.116245,0.98499,7.704212,6.708467,266.7502
92837.57,16.25,731.8861,-0.138301,0.115757,0.984502,8.35533,6.6506,267.9674
92839.86,16.25,731.6826,-0.139766,0.114292,0.984502,8.096385,6.667377,269.1801
92835.94,16.25,732.0341,-0.140742,0.121128,0.981572,8.504123,7.045282,270.4301
92836.95,16.26,731.9416,-0.136348,0.119175,0.983525,8.143685,7.029431,271.605
92840.92,16.26,731.5875,-0.138789,0.119663,0.984014,7.904362,6.893887,272.8041
92834.8,16.27,732.1345,-0.143672,0.124546,0.983525,8.675048,7.29355,274.0508
92837.75,16.27,731.8702,-0.142695,0.12064,0.985967,8.397681,6.944969,275.1918
92836.25,16.28,732.005,-0.139766,0.120151,0.984502,8.105874,6.888731,276.3891
92838.11,16.27,731.8385,-0.132441,0.128452,0.986455,7.870584,6.751307,277.5797
92838.47,16.28,731.8068,-0.139277,0.117222,0.985967,7.363369,6.605172,278.7667
92841.42,16.28,731.5426,-0.138789,0.123081,0.981084,7.836025,7.318667,280.0753
92832.22,16.27,732.3643,-0.139277,0.127476,0.992803,7.714275,7.267478,281.2599
92829.6,16.27,732.5995,-0.134883,0.11771,0.982549,7.801603,6.324673,282.3302
92827.89,16.27,732.7527,-0.124141,0.205112,0.995244,7.547631,8.23014,283.7875
92834.44,16.27,732.1662,-0.12707,0.045933,0.951787,5.730587,-1.878612,281.5319
92845.83,16.26,731.1489,-0.044551,-0.279751,0.926885,3.627241,-11.47678,280.757
92843.5,16.26,731.3577,-0.122676,-0.008267,1.000615,7.386304,3.890815,285.8057
92844.55,16.26,731.2625,-0.149531,0.168979,0.989873,9.139788,5.788978,287.1176
92842.48,16.25,731.4474,-0.133906,0.113804,0.985967,7.98937,6.974586,288.4518
92841.5,16.25,731.5347,-0.138301,0.115757,0.984502,8.018579,7.00009,289.6419
92842.23,16.26,731.4713,-0.146602,0.127476,0.983525,8.185404,6.80605,290.8182
92840.33,16.27,731.6404,-0.170039,0.110386,1.019658,8.886298,6.365632,289.9958
92840.33,16.27,731.6404,-0.128535,-0.092739,0.962529,17.26968,-7.966741,283.3345
92839.38,16.27,731.7249,-0.411738,-0.123989,0.849736,26.64449,-3.542025,283.0785
92830.5,16.29,732.5203,-0.517695,0.315952,0.802861,20.78395,19.17047,294.3221
92837.16,16.28,731.9231,0.076055,0.439487,0.866826,0.324332,16.58152,297.056
92833.48,16.27,732.2534,0.254277,0.088901,0.951787,-11.69707,-4.710596,300.6307
92844.84,16.26,731.2361,0.112676,-0.435513,0.915654,-3.896094,-30.12358,297.2136
92832.46,16.29,732.3432,-0.307734,-0.524868,0.723271,18.58052,-29.90855,285.832
92820.09,16.33,733.4503,-0.588984,-0.231899,0.72083,35.44118,-8.800781,290.8581
92832.13,16.32,732.3749,-0.619258,0.41019,0.704717,26.23143,26.22849,311.2234
92844.05,16.34,731.3074,-0.069941,0.462437,0.726201,-0.131454,25.49294,311.6847
92825.91,16.33,732.9298,0.181523,-0.024868,0.996221,-11.43913,2.113535,313.136
92851.69,16.32,730.6257,0.06873,-0.201626,0.932256,-0.925565,-16.69553,313.168
92848.06,16.32,730.9481,0.063359,-0.64938,0.753545,1.548078,-34.35804,312.7139
92890.67,16.35,727.1432,0.022344,-0.657681,0.729131,4.400391,-26.81153,312.6204
92867.83,16.39,729.183,-0.135371,0.761265,0.876104,7.378319,21.80544,320.1388
92847.13,16.38,731.0327,-0.123652,0.565952,0.680791,9.403646,24.80745,321.2485
92854.13,16.36,730.4064,-0.035762,0.659702,0.819951,6.696942,3.860828,321.8177
92858.74,16.34,729.9942,-0.066035,0.089878,1.060674,12.23087,-6.63041,321.3687
92818.67,16.32,733.5771,-0.856074,-0.102993,0.637822,38.89561,-12.28228,317.7221
92817.76,16.33,733.6591,-0.857051,-0.136196,0.532842,47.87049,-12.58941,317.7322
92819.21,16.34,733.5269,-0.488398,-0.161587,0.755986,3.306533,-0.813375,325.6879
92854.38,16.36,730.3853,0.090215,0.124546,0.987432,-11.84945,3.568193,327.5359
92841.02,16.36,731.5796,0.153691,0.019565,0.961553,-7.731962,-1.194623,328.5883
92861.72,16.37,729.73,0.259648,0.030796,0.967412,-4.987151,-15.59486,328.2773
92835.89,16.37,732.0367,-0.232539,-0.352505,0.824346,27.75537,-22.81199,314.1915
92826.94,16.39,732.8373,-0.793086,0.168979,0.562627,37.57935,18.00473,338.5573
92841.38,16.4,731.5479,-0.091426,0.689487,0.715459,7.551754,29.88956,344.0022
92854.48,16.37,730.3747,0.232793,0.476108,0.848271,-9.465166,3.050588,348.3968
92864.2,16.36,729.5081,0.245977,-0.312954,0.880498,-2.620313,-24.30915,342.3896
92839.97,16.36,731.6721,-0.369258,-0.326138,0.843877,20.63569,-16.74615,339.0314
92825.78,16.38,732.9404,-0.517695,0.360386,0.724248,23.60128,9.873925,353.9116
92834.03,16.38,732.2032,0.055547,0.595249,0.83167,-9.683949,15.23391,1.928146
92832.88,16.37,732.3062,-0.000117,-0.201626,0.979131,2.278498,-16.65694,354.5831
92846.88,16.36,731.0564,-0.592891,-0.110317,0.848271,21.66695,-6.616673,353.6653
92822.11,16.37,733.268,0.012578,0.614292,0.910771,-11.16612,10.0839,9.28714
92826.37,16.37,732.8875,0.011113,-0.49606,0.891729,5.879343,-19.61384,352.1024
92840.38,16.36,731.6351,-0.384395,0.185093,0.963506,0.092858,9.547552,14.14699
92833.17,16.36,732.2798,0.298711,-0.204556,0.881963,-0.664129,-16.62005,1.106171
92856.08,16.36,730.2321,-0.431758,0.013218,0.922002,7.075635,12.70027,25.74242
92837.56,16.38,731.8887,0.275762,0.266636,0.95374,-10.12765,-4.533836,26.57297
92835.05,16.39,732.1133,-0.247187,-0.406704,0.849248,12.95355,-13.00305,8.267395
92840.63,16.39,731.614,0.275762,-0.000454,1.033818,0.515181,-0.017252,23.82338
92840.63,16.39,731.614,-0.879512,-0.040981,0.888799,38.8849,-7.429717,23.46941
92827.53,16.39,732.7845,0.311895,0.084507,0.890752,27.38611,-4.101578,26.97157
92864.7,16.37,729.4631,0.104863,0.10062,0.918096,7.204574,-0.926731,28.36774
92824.41,16.37,733.0646,0.096562,0.084019,0.827764,18.81841,-0.006401,30.40302
92856.8,16.37,730.1686,-0.39416,0.011753,0.977666,22.25512,2.702186,40.99762
92846.55,16.36,731.0828,-0.214473,0.11771,0.995244,18.04924,3.665164,43.05637
92839.42,16.37,731.7223,-0.113887,0.27689,1.01624,16.35484,4.691162,44.14969
92838.88,16.38,731.7698,-0.140254,0.130894,0.98499,13.93827,5.274884,45.52672
92837.02,16.39,731.9363,-0.144648,0.103062,0.982061,11.40875,5.632334,46.82207
92845.52,16.39,731.1753,-0.155391,0.105015,0.98499,8.916563,6.027152,48.11288
92847.92,16.4,730.9613,-0.146602,0.101108,0.984502,8.606764,5.941656,49.34189
92844.5,16.42,731.2678,-0.148555,0.108921,0.984502,8.682274,6.329545,50.61349
92842.94,16.42,731.4078,-0.152949,0.10062,0.981572,9.035191,6.192866,51.80228
92843.41,16.44,731.3655,-0.14709,0.105015,0.981084,8.523956,5.893445,52.94161
92845.55,16.42,731.1727,-0.15002,0.115757,0.983525,8.654657,6.907808,54.30395
92844.5,16.42,731.2678,-0.152461,0.104038,0.98499,9.000274,6.283124,55.40142
92844.76,16.41,731.244,-0.148066,0.101597,0.984502,8.679154,5.843153,56.55248
92841.84,16.41,731.5056,-0.146113,0.106968,0.98499,8.163765,6.017259,57.82179
92842.5,16.41,731.4474,-0.147578,0.110386,0.985967,8.797596,6.529188,59.09457
92842.86,16.41,731.4131,-0.150508,0.112827,0.984014,8.921024,6.27792,60.2588
92847.78,16.42,730.9745,-0.144648,0.111851,0.982061,8.726334,6.459509,61.52377
92845.63,16.43,731.1674,-0.146602,0.112827,0.984014,8.4694,6.498423,62.75879
92846.64,16.43,731.0749,-0.146602,0.109897,0.984502,8.11653,6.398281,63.95825
92846.28,16.43,731.1093,-0.148066,0.110874,0.984502,8.704822,5.947796,65.07815
92844.06,16.44,731.3074,-0.163691,0.095249,0.962529,9.327363,5.580297,66.13437
92849.11,16.45,730.8556,-0.249629,0.155308,1.099736,9.886444,4.843661,67.88604
92844.27,16.46,731.2889,0.077031,0.002964,0.970342,2.402607,0.860413,68.80571
92851.07,16.45,730.6812,-0.069941,0.010288,1.114873,0.224774,4.962523,73.9321
92830.38,16.44,732.5308,-0.048945,0.0723,0.982549,-3.561308,9.194171,79.21838
92830.38,16.44,732.5308,-0.013789,0.250522,0.837529,-0.617028,13.20952,77.86111
92831.77,16.42,732.4066,0.005254,0.317417,1.074346,-2.43332,10.99007,77.48592
92837.3,16.42,731.9125,-0.035273,0.169956,1.172979,-1.292766,11.13427,75.71992
92849.59,16.43,730.8134,0.012578,0.392612,1.091436,3.142101,9.216932,73.59696
92837.98,16.45,731.8517,-0.210078,0.229038,1.130498,5.90957,4.47072,76.27911
92834.3,16.47,732.1794,-0.148066,0.123569,0.788213,4.339484,3.278291,77.9858
92827.85,16.48,732.7554,-0.168086,0.075229,0.814092,4.880674,5.044652,80.37772
92828.72,16.5,732.6788,-0.143184,0.031284,0.898076,8.51417,-0.51112,82.93655
92824.57,16.52,733.0487,-0.373164,0.061069,0.583623,14.5684,2.943057,83.17186
92825.59,16.52,732.9589,-0.117793,-0.096646,0.584111,13.91022,4.280757,85.35835
92829.63,16.53,732.5969,0.02332,-0.505825,1.289678,11.01156,-2.156963,82.97971
92853.6,16.5,730.454,-0.267207,0.190464,1.355596,6.935954,5.764628,83.09111
92856.88,16.5,730.1633,-0.080195,0.404819,1.144658,-3.152665,2.284281,87.4128
92838.22,16.51,731.8279,-0.054805,0.159214,1.031377,-2.351721,6.673381,91.71406
92834.61,16.5,732.153,-0.147578,0.15189,1.024541,0.701809,4.243346,93.03851
92834.66,16.51,732.1477,-0.059199,0.127964,1.006475,-0.144501,2.804262,97.6366
92837.98,16.51,731.8517,-0.061152,0.016636,0.998662,0.27154,2.40513,99.08804
92838.49,16.53,731.8042,-0.047969,0.08646,0.937139,2.558045,4.674272,99.52048
92831.22,16.53,732.4542,-0.079219,0.136265,0.884893,3.475783,8.351184,101.1327
92826.53,16.52,732.8743,-0.080195,0.156772,0.994756,4.595899,9.154936,101.1815
92826.39,16.5,732.8875,-0.134883,0.10062,0.965459,6.36099,7.971558,100.5571
92826.98,16.5,732.8347,-0.129512,0.138706,0.989385,7.092063,7.826647,101.6979
92818.53,16.5,733.5877,-0.129512,0.129917,0.985479,7.32646,7.810959,102.8878
92821,16.52,733.3684,-0.124141,0.130894,0.986943,7.177865,7.715639,104.1156
92816.82,16.53,733.741,-0.126582,0.135288,0.986455,7.157123,7.625185,105.3072
92811.98,16.53,734.1743,-0.125605,0.130405,0.986455,6.856808,7.584069,106.513
92812.41,16.54,734.1346,-0.125605,0.130894,0.98499,7.101918,7.847689,107.7345
92810.84,16.55,734.2747,-0.129023,0.131382,0.983525,7.227851,8.021894,108.9267
92812.14,16.55,734.1584,-0.125117,0.129429,0.98499,7.292301,7.782248,110.1076
92812.14,16.55,734.1584,-0.129023,0.126987,0.984014,7.373128,7.313912,111.2527
92807.6,16.55,734.5654,-0.127559,0.138218,0.986455,7.446725,8.265033,112.5625
92811.67,16.57,734.2007,-0.128535,0.12894,0.985479,7.64391,7.047788,113.653
92812.54,16.59,734.1241,-0.129512,0.136265,0.982549,7.012908,8.263923,115.028
92810.31,16.59,734.3223,-0.130977,0.12894,0.98499,7.450946,7.183328,116.0959
92816.57,16.6,733.7648,-0.13,0.134312,0.98499,7.686708,7.392958,117.3268
92820.16,16.63,733.445,-0.124629,0.13187,0.986455,7.043477,7.41885,118.5723
92820.16,16.63,733.445,-0.130488,0.130894,0.983525,7.705776,7.752028,119.7744
92816.08,16.64,733.807,-0.124141,0.132847,0.98499,7.029899,7.688219,120.9724
92812.64,16.66,734.1161,-0.125117,0.125522,0.984014,7.535645,7.473156,122.1586
92807.81,16.67,734.5469,-0.124141,0.138218,0.984502,6.739884,8.257669,123.442
92810.59,16.68,734.2985,-0.124629,0.128452,0.98499,7.274894,7.395944,124.5647
92809.03,16.69,734.4385,-0.124629,0.131382,0.985479,7.165064,7.242213,125.7692
92812.64,16.69,734.1161,-0.124629,0.127964,0.985479,6.962478,7.040036,126.9911
92816.38,16.71,733.7806,-0.122676,0.135288,0.985967,7.287378,7.874875,128.3155
92813.1,16.71,734.0739,-0.128047,0.126011,0.986943,7.68237,7.229467,129.432
92824.34,16.72,733.0698,-0.128535,0.129917,0.986455,7.50078,7.739054,130.7088
92826.66,16.72,732.8611,-0.127559,0.126499,0.985479,7.338192,7.260909,131.8506
92835.17,16.75,732.1001,-0.127559,0.126011,0.986455,7.021491,7.033922,133.0337
92830.19,16.74,732.5466,-0.125117,0.129429,0.985479,7.467224,7.74422,134.3176
92831.23,16.75,732.4542,-0.124629,0.117222,0.984502,7.110379,6.441567,135.4018
92832,16.76,732.3855,-0.129512,0.135288,0.988408,7.260409,7.737111,136.7475
92831.7,16.76,732.4119,-0.129512,0.127964,0.986943,7.620828,7.365287,137.8983
92833.12,16.77,732.2851,-0.126582,0.136265,0.98499,7.620054,7.918039,139.1479
92829.19,16.77,732.6365,-0.125605,0.123569,0.982549,7.060537,6.63916,140.1551
92835.59,16.79,732.0657,-0.129512,0.1348,0.988896,7.305184,7.514438,141.4646
92834.67,16.8,732.145,-0.125117,0.125034,0.98499,7.11974,7.305731,142.6223
92836.34,16.8,731.9971,-0.12707,0.132847,0.984014,7.580812,7.881316,143.8839
92835.69,16.8,732.0552,-0.129023,0.135288,0.984014,7.326607,7.751344,145.0553
92832.7,16.8,732.3221,-0.121211,0.126499,0.985479,7.242468,7.525724,146.2152
92836.09,16.81,732.0209,-0.13,0.125522,0.986943,7.182172,7.451832,147.3925
92829.53,16.81,732.6048,-0.126582,0.130405,0.985967,6.979066,7.211846,148.5911
92832.27,16.82,732.3617,-0.124141,0.136753,0.983525,6.91419,8.269482,149.9269
92832.27,16.82,732.3617,-0.126094,0.126011,0.98499,7.252627,7.173742,150.9777
92832.27,16.82,732.3617,-0.12707,0.1348,0.984014,7.31221,8.02977,152.2409
92831.09,16.83,732.4674,-0.128047,0.120151,0.983525,7.779474,6.950099,153.2947
92832.14,16.84,732.3723,-0.13,0.133335,0.983525,7.342592,8.195918,154.7001
92832.8,16.84,732.3141,-0.126582,0.126011,0.986455,7.562294,7.417729,155.789
92828.94,16.85,732.6577,-0.123652,0.129429,0.98499,7.25202,7.441249,157.0025
92836.98,16.87,731.939,-0.12707,0.130894,0.984502,7.134018,7.328242,158.2007
92837.44,16.88,731.8993,-0.127559,0.132847,0.986455,7.1039,7.7996,159.4613
92837.44,16.88,731.8993,-0.128535,0.133335,0.988408,7.161662,7.907134,160.6904
92832.84,16.91,732.3088,-0.126582,0.129429,0.988408,7.241852,7.747397,161.8626
92834.72,16.93,732.1424,-0.125117,0.134312,0.986455,7.108478,7.650356,163.0419
92838.75,16.94,731.7804,-0.126582,0.128452,0.985967,7.179449,7.730776,164.2571
92832.99,16.96,732.2957,-0.126094,0.129429,0.984014,7.151222,7.684577,165.482
92844.96,16.97,731.2255,-0.128535,0.129917,0.984502,7.048454,7.736706,166.7058
92838.15,16.98,731.8359,-0.0675,0.205601,0.98499,6.181339,9.979237,168.0735
92830.06,16.99,732.5573,-0.184687,0.111362,0.975713,6.118327,8.008782,170.6487
92825.22,17,732.9905,-0.405879,0.386265,1.254033,5.541476,7.59731,171.9555
92824.27,17,733.0751,-0.026484,0.06644,0.9679,5.493341,7.62753,173.0015
92828.16,17,732.729,-0.124141,0.12894,0.98792,7.235371,7.318339,174.2143
92830.46,17,732.5229,-0.123652,0.128452,0.98499,7.019316,7.343665,175.4303
92831.48,17,732.433,-0.125117,0.12894,0.982061,6.890198,7.264014,176.6429
92831.88,17.01,732.3961,-0.126094,0.130405,0.984502,7.2179,7.486405,177.8679
92838.63,17.03,731.791,-0.116816,0.133823,0.987432,6.849562,7.678451,179.0883
92840.7,17.04,731.606,-0.11877,0.129429,0.985967,6.703614,7.630194,180.2769
92839.3,17.06,731.7328,-0.11877,0.129917,0.982549,6.59809,7.481654,181.4747
92836.83,17.08,731.9548,-0.123652,0.125034,0.984502,7.399965,7.205518,182.6535
92839.48,17.08,731.717,-0.116328,0.131382,0.984014,6.777281,7.914718,183.9317
92837.33,17.09,731.9099,-0.115352,0.14603,0.98792,6.700305,7.890309,185.114
92838.55,17.12,731.7989,-0.120723,0.129917,0.987432,6.431977,7.535887,186.2337
92838.55,17.12,731.7989,-0.124141,0.137729,0.987432,7.283915,7.746043,187.4473
92828.39,17.12,732.7078,-0.114375,0.133335,0.984502,6.844603,7.911941,188.6563
92827.08,17.12,732.8241,-0.125117,0.138706,0.992803,7.296982,8.397171,189.91
92832.98,17.12,732.2983,-0.117793,0.122104,0.984502,6.667657,7.029692,190.9267
92832.98,17.12,732.2983,-0.123164,0.145054,0.989385,6.804383,7.873932,192.2377
92830.45,17.13,732.5229,-0.100703,0.16019,0.999639,5.858949,8.808929,193.5173
92835.45,17.14,732.0764,-0.122676,0.140171,0.987432,7.228375,8.180961,194.6876
92823.81,17.15,733.1174,-0.121211,0.124058,0.983037,6.940731,6.862245,195.6691
92822.61,17.16,733.2231,-0.114863,0.137241,0.985967,6.679572,7.90836,197.0053
92819.88,17.15,733.4688,-0.114863,0.131382,0.988408,6.359565,7.710453,198.19
92825.06,17.15,733.0038,-0.119258,0.128452,0.982061,6.894133,7.068414,199.2883
92825.06,17.15,733.0038,-0.122188,0.129917,0.985479,7.339406,7.689537,200.5739
92821.75,17.14,733.2997,-0.115352,0.1348,0.983037,6.914053,8.143068,201.8365
92816.28,17.15,733.7885,-0.116328,0.137241,0.98792,6.548715,7.955822,203.0365
92820.58,17.16,733.4054,-0.116816,0.133823,0.983525,6.64724,7.834995,204.2116
92817.76,17.17,733.6591,-0.115352,0.135288,0.986455,6.936332,7.944734,205.4485
92816.98,17.19,733.7278,-0.118281,0.127476,0.986943,6.599141,6.912732,206.5383
92810.83,17.2,734.2773,-0.122188,0.135288,0.986455,7.017362,7.656863,207.823
92814.17,17.2,733.9788,-0.121211,0.13187,0.984014,6.867445,7.473166,208.9912
92818.53,17.22,733.5877,-0.117305,0.128452,0.983037,6.456325,7.255434,210.1888
92826.37,17.21,732.8875,-0.118281,0.132847,0.984502,7.044066,7.772278,211.431
92819.95,17.23,733.4609,-0.11584,0.129429,0.989385,6.671527,7.328587,212.5444
92820.27,17.22,733.4318,-0.11584,0.135288,0.985479,6.552749,8.257952,213.8743
92817.79,17.24,733.6537,-0.119258,0.13187,0.987432,7.192266,7.770475,215.012
92814.52,17.24,733.9471,-0.122188,0.13187,0.985479,6.900459,7.563629,216.1823
92816.88,17.25,733.7357,-0.119746,0.132847,0.988408,6.528612,7.537835,217.3886
92809.66,17.25,734.3804,-0.116816,0.141147,0.984014,6.876077,8.152349,218.6741
92810.32,17.25,734.3223,-0.113887,0.137729,0.98499,6.261598,8.084898,219.8785
92799.73,17.27,735.2682,-0.119258,0.134312,0.990361,7.019176,7.536421,220.9638
92791.65,17.28,735.9922,-0.130977,0.126987,0.989873,7.69093,7.68075,222.1826
92803.94,17.29,734.893,-0.139766,0.131382,0.989385,7.466496,7.631645,223.4252
92806.37,17.31,734.6763,-0.138789,0.141636,0.979131,7.593625,7.896365,224.6292
92817,17.32,733.7251,-0.11291,0.129429,0.980596,6.401556,7.426554,225.8039
92817,17.32,733.7251,-0.127559,0.138706,0.986943,7.08297,7.871703,227.0682
92819.66,17.33,733.4873,-0.122188,0.116245,0.990361,6.882165,6.488983,228.0208
92818.8,17.34,733.564,-0.122676,0.133823,0.985479,7.07616,7.251938,229.3627
92817.89,17.35,733.6459,-0.11291,0.136265,1.001104,6.207378,8.046999,230.6089
92817.89,17.35,733.6459,-0.117305,0.141636,0.988896,6.670485,8.522003,231.8691
92825.9,17.36,732.9298,-0.119746,0.130894,0.983525,7.00281,7.458532,232.9453
92826.72,17.38,732.8558,-0.116328,0.126499,0.98499,6.608707,7.282308,234.137
92825.45,17.38,732.9694,-0.123652,0.134312,0.985967,7.48219,7.847465,235.3935
92826.92,17.4,732.84,-0.11877,0.124546,0.98499,6.663705,7.376984,236.5636
92828.63,17.4,732.6867,-0.11877,0.130405,0.979131,6.764476,7.023284,237.7156
92828.13,17.39,732.7316,-0.117793,0.127964,0.986455,6.642931,7.018272,238.9375
92830.38,17.42,732.5308,-0.113398,0.136753,0.98792,6.699077,7.909916,240.2779
92830.14,17.42,732.5519,-0.114863,0.117222,0.983525,6.094362,6.736397,241.3193
92831.95,17.44,732.3881,-0.116328,0.135776,0.988408,6.452824,7.441399,242.6135
92825.83,17.45,732.9377,-0.105586,0.141147,0.983525,6.825889,7.290383,243.8387
92825.24,17.46,732.9879,-0.118281,0.143589,0.98792,6.657348,8.41191,245.1686
92828.52,17.46,732.6973,-0.11584,0.136265,0.989385,6.756011,8.178502,246.3558
92831.58,17.47,732.4225,-0.14123,0.137729,0.98792,8.285285,8.129988,247.5315
92832.23,17.47,732.3643,-0.129023,0.125522,0.981572,7.67541,7.081374,248.6131
92826.98,17.47,732.8347,-0.11291,0.142124,0.98792,6.76781,7.790117,249.9097
92828.8,17.49,732.6708,-0.121699,0.135288,0.979131,6.678123,8.04811,251.1576
92826.38,17.51,732.8875,-0.11584,0.129429,0.983525,6.543184,7.903483,252.3548
92828.73,17.51,732.6761,-0.114375,0.133335,0.985479,6.195365,7.763496,253.5385
92826.77,17.51,732.8531,-0.123164,0.126987,0.983037,7.104679,7.086369,254.6264
92832.99,17.51,732.2957,-0.122676,0.127476,0.989873,6.600866,6.943744,255.7763
92831.58,17.5,732.4225,-0.117793,0.12894,0.986455,6.797839,7.751552,257.0847
92825.68,17.5,732.9509,-0.124629,0.12894,0.980596,7.547797,7.59695,258.2639
92832.99,17.51,732.2957,-0.119258,0.134312,0.987432,6.868791,7.356356,259.4193
92828.8,17.52,732.6708,-0.125605,0.127964,0.981084,6.890791,7.479355,260.632
92830.96,17.51,732.478,-0.121211,0.137729,0.984502,6.654662,8.157386,261.9227
92828.41,17.51,732.7052,-0.124629,0.133335,0.99085,7.363763,7.360677,262.9973
92829.5,17.52,732.6074,-0.11877,0.137241,0.98499,6.978173,7.993061,264.2787
92829.4,17.55,732.618,-0.123652,0.126987,0.986943,6.48178,7.122301,265.3914
92829.4,17.55,732.618,-0.123164,0.141636,0.983525,7.246107,7.886667,266.7044
92828.88,17.56,732.6629,-0.127559,0.127476,0.983525,7.025661,7.338507,267.8597
92834.23,17.57,732.1847,-0.121699,0.135288,0.983037,7.060888,8.175513,269.1521
92832.4,17.59,732.3485,-0.121211,0.134312,0.98792,6.867426,7.998295,270.3215
92828.3,17.6,732.7158,-0.119746,0.133335,0.980596,6.824955,7.784182,271.4908
92825.09,17.61,733.0038,-0.119746,0.126987,0.982061,6.874269,7.551942,272.6882
92823.98,17.63,733.1016,-0.118281,0.136753,0.980596,6.731274,7.925102,273.9342
92823.98,17.63,733.1016,-0.121699,0.126987,0.981084,6.921437,7.354583,275.0182
92827.03,17.64,732.8294,-0.117793,0.135288,0.982061,7.131064,7.910519,276.3165
92826.94,17.66,732.8373,-0.121211,0.130405,0.989873,6.976357,7.623091,277.4652
92823.14,17.68,733.1755,-0.129512,0.125522,0.986455,7.2271,7.448552,278.6865
92827.24,17.69,732.8109,-0.122676,0.132358,0.985479,7.027893,7.528718,279.8714
92827.02,17.71,732.8294,-0.13293,0.159702,0.996709,6.956257,8.319635,281.2121
92818.55,17.71,733.5877,-0.120723,0.131382,0.985479,7.23282,7.375916,282.337
92825.55,17.72,732.9615,-0.121211,0.130405,0.988896,7.022228,7.287632,283.5475
92826.7,17.74,732.8585,-0.154902,0.11771,0.997686,7.017262,7.496067,284.7409
92819.88,17.75,733.4688,-0.125117,0.136753,0.978154,7.161018,7.793618,285.9363
92822.97,17.76,733.1913,-0.120234,0.145054,0.989873,6.871654,7.585283,287.1827
92825.42,17.78,732.972,-0.125117,0.133335,0.986455,7.516369,7.954882,288.3983
92824.83,17.78,733.0249,-0.125605,0.138218,0.98499,7.095836,7.92406,289.5524
92821.39,17.8,733.3314,-0.124629,0.130894,0.990361,6.983822,7.481141,290.6785
92826.78,17.82,732.8505,-0.122188,0.12064,0.986455,7.027676,7.224092,291.8742
92824.61,17.83,733.046,-0.11291,0.137241,0.988408,6.287797,8.069106,293.1178
92823.14,17.85,733.1755,-0.127559,0.133335,0.988408,7.115016,7.239631,294.2614
92828.49,17.86,732.6973,-0.133906,0.133335,0.98792,7.548203,7.782668,295.566
92827.61,17.87,732.7766,-0.119746,0.127476,0.986455,6.830838,7.185413,296.6934
92821.44,17.88,733.3288,-0.117305,0.143101,0.986943,6.369649,8.563863,298.0445
92826.59,17.9,732.869,-0.125117,0.1348,0.983525,7.025884,7.25597,299.1145
92826.44,17.91,732.8822,-0.123164,0.12894,0.984014,6.983479,7.421857,300.3409
92827.88,17.93,732.7527,-0.120234,0.139683,0.982061,6.901751,8.324793,301.6705
92826.17,17.92,732.906,-0.129023,0.136753,0.984502,6.536838,8.051208,302.8743
92826.02,17.94,732.9192,-0.120234,0.150913,0.982549,6.581455,7.881269,304.0251
92821.22,17.95,733.3499,-0.124141,0.109409,0.968877,6.623815,7.741242,305.2442
92821.22,17.95,733.3499,-0.111934,0.1348,0.995732,6.276629,7.635971,306.4243
92825.95,17.97,732.9245,-0.135859,0.122104,0.979619,6.825725,7.806952,307.6557
92823.72,17.97,733.1253,-0.03918,0.104038,0.9596,4.331816,7.351253,308.7617
92824.94,18,733.017,-0.119258,0.135288,0.981084,6.211234,7.569637,310.014
92823.4,18.01,733.1544,-0.112422,0.147495,0.98792,6.382602,8.375678,311.2731
92819.83,18.01,733.4714,-0.129512,0.118198,0.982061,7.256929,6.833284,312.3005
92830,18.05,732.5625,-0.138301,0.280308,1.000615,6.91217,8.443191,312.2249
92830,18.05,732.5625,-0.300898,0.053257,1.126104,18.63468,7.607221,313.4379
92822.06,18.07,733.2733,-0.069941,-0.13522,0.864873,6.680918,-9.98733,301.6138
92836.83,18.11,731.9548,-0.405879,-0.415981,0.74915,25.68112,-17.83071,292.0947
92818.16,18.14,733.6221,-0.318965,0.395542,0.874639,20.55345,13.24342,303.8303
92828.99,18.15,732.6523,-0.160273,0.617222,0.828252,0.72046,30.23475,309.932
92828.08,18.15,732.7369,0.100469,0.436558,0.988896,-5.912666,18.24464,310.416
92826.83,18.16,732.8479,-0.014766,0.287144,0.946416,1.580792,16.5765,312.7246
92833.78,18.17,732.2243,-0.004023,0.346226,0.933232,-0.101878,17.83026,315.074
92832.57,18.18,732.3353,0.058477,0.255894,0.999639,-2.450959,16.48909,316.9831
92816.45,18.17,733.7753,0.014043,0.270054,0.983525,-1.354205,16.80947,317.6321
92801.75,18.18,735.0885,0.020391,0.220737,0.979619,-2.414716,15.03041,319.0621
92801.25,18.2,735.1334,0.033574,0.222202,0.975713,-1.982215,14.04686,320.0792
92799.05,18.21,735.329,-0.004023,0.230015,0.98499,0.023383,13.35144,320.9632
92803.45,18.22,734.9379,0.029668,0.271519,0.983037,-1.37547,13.57262,322.3439
92807.88,18.23,734.5416,0.01209,0.239292,0.947881,-0.681605,14.35213,323.9571
92805.91,18.23,734.7159,0.000859,0.251987,1.001592,-0.441263,13.01578,324.7621
92805.58,18.24,734.7477,-0.02502,0.244663,0.947393,-2.330715,19.35464,332.4167
92807.32,18.24,734.5918,0.201543,0.451206,0.863408,-9.378197,27.46102,346.4785
92800.5,18.25,735.1995,0.136602,0.498569,0.93665,-7.926956,24.51805,351.019
92802.46,18.25,735.0251,0.249395,0.499546,0.995732,-6.106261,17.41527,344.625
92802.95,18.27,734.9802,0.019902,-0.291958,0.855107,3.470708,-10.42807,323.005
92829.45,18.29,732.6127,-0.168574,-0.348599,0.898076,12.93977,-10.43233,317.4218
92813.56,18.35,734.0316,-0.492305,-0.021938,0.825322,23.65426,2.86458,322.725
92813.56,18.35,734.0316,-0.389766,0.379429,0.787725,13.72078,30.84333,340.6085
92808.41,18.36,734.494,-0.125605,0.496616,0.8971,-8.622936,27.55457,341.6832
92817.86,18.35,733.6485,0.298223,0.192417,0.945928,-16.64162,10.7671,343.4526
92848.47,18.33,730.9138,-0.18957,-0.637661,0.8971,-0.800006,-13.70337,342.3907
92848.47,18.33,730.9138,-0.223262,-0.347622,0.84583,15.84267,-8.750358,339.9883
92835.98,18.36,732.0287,-0.313594,-0.403774,0.86585,11.44666,-5.21846,343.2214
92827.7,18.42,732.7686,-0.065547,0.009312,0.994756,1.955791,3.141525,351.0206
92822.63,18.4,733.2231,-0.05041,0.132847,0.98792,1.265477,7.594681,354.9569
92824.63,18.41,733.0434,0.014531,0.053257,1.019658,-0.731005,4.493995,356.4199
92822.98,18.4,733.1913,-0.013789,0.017612,1.024541,-0.978439,3.404569,357.3528
92825.91,18.4,732.9298,0.033574,0.077671,0.987432,-2.093799,4.673102,358.1964
92827.02,18.41,732.8294,0.014043,0.049839,1.021611,-1.120038,2.795411,359.6543
92821.14,18.42,733.3552,0.022832,0.103062,1.006963,-1.794286,4.780478,1.285919
92823.15,18.42,733.1755,0.034063,0.091831,0.941533,-1.307928,6.280696,2.330414
92821.27,18.43,733.3446,0.040898,0.083042,1.115361,-3.938377,3.285904,3.087692
92835.06,18.43,732.1107,0.090703,0.186069,1.011846,0.8332,-7.627502,3.69223
92831.52,18.44,732.4277,-0.204707,-0.485806,0.942021,9.190564,-22.18044,359.9391
92823.34,18.44,733.157,-0.23791,-0.369595,0.893682,20.63723,-21.51238,353.3012
92809.38,18.46,734.4068,-0.511348,0.39896,0.746709,27.32594,8.598857,2.762665
92801.59,18.47,735.1017,-0.165645,0.438511,0.697881,4.956475,23.2829,13.28542
92802.32,18.48,735.0383,0.292363,0.491245,0.855107,-14.38917,14.58221,15.88571
92799.89,18.46,735.255,0.344121,0.247104,0.920537,-18.53153,6.940979,17.22214
92817.66,18.47,733.667,0.339727,0.08939,0.922979,-20.18039,5.075271,17.99356
92815.39,18.47,733.8704,0.133672,0.048862,0.939092,0.669706,1.685842,20.59203
92812.27,18.49,734.1479,-0.390742,0.062534,0.917119,21.49816,3.069968,21.47472
92805.08,18.49,734.7926,-0.534785,0.097202,0.821904,28.39712,5.153962,23.61444
92804.72,18.49,734.8243,-0.567012,0.099155,0.817998,20.79243,3.430773,23.53217
92806.69,18.49,734.6473,0.161016,-0.019497,1.023564,-8.820334,-1.053628,21.96552
92821.8,18.49,733.2971,0.286016,-0.036099,0.963506,-14.487,-2.057323,23.0535
92827.91,18.51,732.7501,-0.038203,0.005894,0.983037,-2.491406,2.176307,25.35767
